time,seconds_elapsed,z,y,x
1740578186590878200,0.223878173828125,-0.8558916449546814,-0.08507668972015381,0.07237205654382706
1740578186702837500,0.33583740234375,-0.8558042049407959,-0.08506416529417038,0.07238677889108658
1740578186799087400,0.43208740234375,-0.8558714985847473,-0.08555809408426285,0.07210192829370499
1740578186895337500,0.52833740234375,-0.856650710105896,-0.08568727970123291,0.07172474265098572
1740578186991587600,0.624587646484375,-0.858305037021637,-0.08570718765258789,0.07140108942985535
1740578187087837400,0.72083740234375,-0.8622462749481201,-0.08528517931699753,0.0713098794221878
1740578187184087600,0.817087646484375,-0.8755913376808167,-0.0859646424651146,0.06939372420310974
1740578187280337400,0.91333740234375,-0.8551384806632996,-0.0795619785785675,0.08799076825380325
1740578187376587500,1.00958740234375,-0.8491237759590149,-0.09139487147331238,0.06753572821617126
1740578187472837400,1.10583740234375,-0.8740304708480835,-0.07713358849287033,0.042130399495363235
1740578187569087500,1.20208740234375,-0.9400802850723267,-0.07476548105478287,-0.008993944153189659
1740578187665337600,1.298337646484375,-0.9644206762313843,-0.08160389959812164,-0.024456201121211052
1740578187761587500,1.39458740234375,-0.9549326300621033,-0.07986842095851898,0.0045240046456456184
1740578187857837600,1.490837646484375,-0.9272615909576416,-0.07982193678617477,0.04923499748110771
1740578187954087400,1.58708740234375,-0.8913285732269287,-0.08703005313873291,0.08548954129219055
1740578188050337500,1.683337646484375,-0.8967500925064087,-0.08803956210613251,0.0822330117225647
1740578188146587400,1.77958740234375,-0.8925466537475586,-0.09469741582870483,0.08030196279287338
1740578188242837500,1.87583740234375,-0.879366934299469,-0.09326308220624924,0.08751732856035233
1740578188339087400,1.97208740234375,-0.8594204783439636,-0.08710313588380814,0.10191690921783447
1740578188435337500,2.06833740234375,-0.8404871821403503,-0.07834623008966446,0.1219380721449852
1740578188531587600,2.164587646484375,-0.8335897922515869,-0.07291771471500397,0.13903740048408508
1740578188627837400,2.26083740234375,-0.8069905638694763,-0.06729232519865036,0.1715283989906311
1740578188724087600,2.357087646484375,-0.7772727608680725,-0.05269034579396248,0.21189844608306885
1740578188820337400,2.45333740234375,-0.8424715995788574,-0.07774090021848679,0.20404307544231415
1740578188916587500,2.54958740234375,-0.8075467348098755,-0.0610077865421772,0.2519398629665375
1740578189012837400,2.64583740234375,-0.7781805396080017,-0.058882009238004684,0.2750605642795563
1740578189109087500,2.74208740234375,-0.8701999187469482,-0.08834164589643478,0.2726713716983795
1740578189205337600,2.838337646484375,-0.8676664233207703,-0.08235246688127518,0.3035813868045807
1740578189397837600,3.030837646484375,-0.8500191569328308,-0.07884619385004044,0.3667261600494385
1740578189494087400,3.12708740234375,-0.8594835996627808,-0.09784199297428131,0.3783334195613861
1740578189590337500,3.223337646484375,-0.875312328338623,-0.11633264273405075,0.3805219829082489
1740578189686587400,3.31958740234375,-0.866874635219574,-0.1072448268532753,0.4032086730003357
1740578189782837500,3.41583740234375,-0.8406391739845276,-0.08287360519170761,0.4394504427909851
1740578189879087400,3.51208740234375,-0.8108130693435669,-0.07107995450496674,0.46985924243927
1740578189975337500,3.60833740234375,-0.7900587916374207,-0.0713488981127739,0.48231565952301025
1740578190071587600,3.704587646484375,-0.8287167549133301,-0.11634869128465652,0.45739394426345825
1740578190167837400,3.80083740234375,-0.8246116042137146,-0.11466813832521439,0.46072331070899963
1740578190360337400,3.99333740234375,-0.7876186370849609,-0.07459525763988495,0.48895448446273804
1740578190456587500,4.08958740234375,-0.81844562292099,-0.09409364312887192,0.47088882327079773
1740578190552837400,4.18583740234375,-0.8484501242637634,-0.12794724106788635,0.43582865595817566
1740578190649087500,4.28208740234375,-0.8964778184890747,-0.14306171238422394,0.37964296340942383
1740578190745337600,4.378337646484375,-0.90998774766922,-0.16252653300762177,0.3446056842803955
1740578190841587500,4.47458740234375,-0.8927567005157471,-0.12741367518901825,0.36176326870918274
1740578190937837600,4.570837646484375,-0.8667566180229187,-0.08592727780342102,0.3805660009384155
1740578191034087400,4.66708740234375,-0.8281679153442383,-0.06769729405641556,0.3898042142391205
1740578191130337500,4.763337646484375,-0.8033208250999451,-0.056962866336107254,0.3890736699104309
1740578191322837500,4.95583740234375,-0.7983138561248779,-0.044335510581731796,0.3670598566532135
1740578191419087400,5.05208740234375,-0.8258645534515381,-0.05500342696905136,0.34558233618736267
1740578191515337500,5.14833740234375,-0.7919409275054932,-0.02104613184928894,0.36355727910995483
1740578191611587600,5.244587646484375,-0.7511537075042725,0.010226214304566383,0.3770740330219269
1740578191707837400,5.34083740234375,-0.6686376929283142,0.05204063281416893,0.3972506523132324
1740578191804087600,5.437087646484375,-0.7022582292556763,0.023312272503972054,0.3475196957588196
1740578191900337400,5.53333740234375,-0.7212840914726257,-0.0013942545047029853,0.30539846420288086
1740578191996587500,5.62958740234375,-0.7286289930343628,-0.02668573148548603,0.263915479183197
1740578192092837400,5.72583740234375,-0.6922187209129333,-0.045255664736032486,0.24168060719966888
1740578192189087500,5.82208740234375,-0.6487279534339905,-0.043768495321273804,0.24191956222057343
1740578192285337600,5.918337646484375,-0.6442013382911682,-0.04851404204964638,0.22015754878520966
1740578192381587500,6.01458740234375,-0.6559305191040039,-0.056959863752126694,0.1929052472114563
1740578192477837600,6.110837646484375,-0.6520300507545471,-0.05992917716503143,0.18222713470458984
1740578192574087400,6.20708740234375,-0.6731189489364624,-0.06527550518512726,0.16058707237243652
1740578192670337500,6.303337646484375,-0.6826059222221375,-0.07010122388601303,0.1438547521829605
1740578192766587400,6.39958740234375,-0.6726265549659729,-0.08098549395799637,0.1283758133649826
1740578192862837500,6.49583740234375,-0.6804696917533875,-0.09442877769470215,0.10337823629379272
1740578192959087400,6.59208740234375,-0.7063056230545044,-0.1026134267449379,0.07845872640609741
1740578193055337500,6.68833740234375,-0.700739860534668,-0.10424435138702393,0.07871261239051819
1740578193151587600,6.784587646484375,-0.7148658037185669,-0.11429250985383987,0.06949970871210098
1740578193247837400,6.88083740234375,-0.7086039781570435,-0.12542615830898285,0.07361055165529251
1740578193344087600,6.977087646484375,-0.6937389969825745,-0.12180130928754807,0.09696179628372192
1740578193440337400,7.07333740234375,-0.6867230534553528,-0.11225045472383499,0.11814654618501663
1740578193536587500,7.16958740234375,-0.7015113234519958,-0.09950174391269684,0.12254058569669724
1740578193632837400,7.26583740234375,-0.6980330348014832,-0.0939822793006897,0.12914057075977325
1740578193729087500,7.36208740234375,-0.6995379328727722,-0.09426077455282211,0.12893743813037872
1740578193825337600,7.458337646484375,-0.697828471660614,-0.09118414670228958,0.13338947296142578
1740578193921587500,7.55458740234375,-0.6984647512435913,-0.08650606870651245,0.1382349133491516
1740578194017837600,7.650837646484375,-0.702345609664917,-0.08359204232692719,0.13865751028060913
1740578194114087400,7.74708740234375,-0.7093152403831482,-0.08489863574504852,0.1329554170370102
1740578194210337500,7.843337646484375,-0.7188136577606201,-0.08643357455730438,0.1266307532787323
1740578194306587400,7.93958740234375,-0.7199098467826843,-0.0859808549284935,0.12549573183059692
1740578194402837500,8.03583740234375,-0.7270160913467407,-0.08915875107049942,0.11986420303583145
1740578194499087400,8.13208740234375,-0.7286157011985779,-0.09321831166744232,0.11865413188934326
1740578194595337500,8.22833740234375,-0.7296773791313171,-0.09629707783460617,0.12063660472631454
1740578194691587600,8.324587646484375,-0.7254363894462585,-0.10144773125648499,0.12220653146505356
1740578194787837400,8.42083740234375,-0.7226033210754395,-0.10511667281389236,0.12394440919160843
1740578194884087600,8.517087646484375,-0.721411406993866,-0.10624417662620544,0.12456157058477402
1740578194980337400,8.61333740234375,-0.723251223564148,-0.10753762722015381,0.12245404720306396
1740578195076587500,8.70958740234375,-0.7210223078727722,-0.10682646930217743,0.12215632945299149
1740578195172837400,8.80583740234375,-0.7209940552711487,-0.10504215210676193,0.12196653336286545
1740578195269087500,8.90208740234375,-0.7218313217163086,-0.10335743427276611,0.1218806579709053
1740578195365337600,8.998337646484375,-0.7191997170448303,-0.10183195769786835,0.12443184852600098
1740578195461587500,9.09458740234375,-0.7332627773284912,-0.10325828939676285,0.11974624544382095
1740578195557837600,9.190837646484376,-0.7631996870040894,-0.1107994094491005,0.11622179299592972
1740578195654087400,9.28708740234375,-0.7548115253448486,-0.1421007663011551,0.1365741342306137
1740578195750337500,9.383337646484375,-0.7191938757896423,-0.19715382158756256,0.1747392863035202
1740578195846587400,9.47958740234375,-0.7056881785392761,-0.24630385637283325,0.2226637750864029
1740578195942837500,9.57583740234375,-0.6727494597434998,-0.27174076437950134,0.29370352625846863
1740578196039087400,9.67208740234375,-0.6496382355690002,-0.29363954067230225,0.3305644392967224
1740578196135337500,9.76833740234375,-0.6510841250419617,-0.3133792579174042,0.3326699435710907
1740578196231587600,9.864587646484376,-0.6698421239852905,-0.3236987888813019,0.3226374685764313
1740578196327837400,9.96083740234375,-0.5728183388710022,-0.284344345331192,0.38188251852989197
1740578196424087600,10.057087646484375,-0.45743227005004883,-0.20986109972000122,0.4211142361164093
1740578196520337400,10.15333740234375,-0.5355142951011658,-0.18651093542575836,0.3366292715072632
1740578196616587500,10.24958740234375,-0.6401506662368774,-0.16837838292121887,0.25254911184310913
1740578196712837400,10.34583740234375,-0.7088596820831299,-0.13287173211574554,0.2146720141172409
1740578196809087500,10.44208740234375,-0.7240800261497498,-0.10753148794174194,0.19347020983695984
1740578196905337600,10.538337646484376,-0.7072324156761169,-0.09346476197242737,0.17910164594650269
1740578197001587500,10.63458740234375,-0.6756618618965149,-0.09729475528001785,0.16067606210708618
1740578197097837600,10.730837646484375,-0.6846800446510315,-0.09359206259250641,0.14273560047149658
1740578197194087400,10.82708740234375,-0.7029423117637634,-0.08579320460557938,0.12879343330860138
1740578197290337500,10.923337646484375,-0.7109034061431885,-0.08208682388067245,0.11870837211608887
1740578197482837500,11.11583740234375,-0.7087841033935547,-0.07920482754707336,0.11258154362440109
1740578197579087400,11.21208740234375,-0.7057643532752991,-0.07645806670188904,0.11303741484880447
1740578197675337500,11.30833740234375,-0.6963975429534912,-0.07799308001995087,0.10913458466529846
1740578197771587600,11.404587646484375,-0.7263508439064026,-0.07540819048881531,0.09073350578546524
1740578197867837400,11.50083740234375,-0.7403384447097778,-0.07400865107774734,0.09416001290082932
1740578197964087600,11.597087646484376,-0.753528356552124,-0.06032342463731766,0.13688915967941284
1740578198060337400,11.69333740234375,-0.8074988126754761,-0.05280139297246933,0.20149338245391846
1740578198156587500,11.78958740234375,-0.8002246022224426,0.036466825753450394,0.3446101248264313
1740578198252837400,11.88583740234375,-0.7541897296905518,0.16720406711101532,0.47735539078712463
1740578198349087500,11.98208740234375,-0.6921186447143555,0.26378095149993896,0.5447494983673096
1740578198445337600,12.078337646484375,-0.6759843230247498,0.3154657185077667,0.5470135807991028
1740578198541587500,12.17458740234375,-0.7306183576583862,0.3214035928249359,0.5358603596687317
1740578198637837600,12.270837646484376,-0.6466248631477356,0.43716463446617126,0.44646796584129333
1740578198734087400,12.36708740234375,-0.7052293419837952,0.46180880069732666,0.41615960001945496
1740578198830337500,12.463337646484375,-0.6626278162002563,0.5323470830917358,0.3852684199810028
1740578198926587400,12.55958740234375,-0.6812955141067505,0.5452202558517456,0.40915390849113464
1740578199022837500,12.65583740234375,-0.7112598419189453,0.501474916934967,0.4644225239753723
1740578199119087400,12.75208740234375,-0.730549693107605,0.4234577715396881,0.5296396613121033
1740578199215337500,12.84833740234375,-0.7197854518890381,0.38111281394958496,0.5798773765563965
1740578199311587600,12.944587646484376,-0.7064725756645203,0.3584321439266205,0.6089117527008057
1740578199407837400,13.04083740234375,-0.6956542134284973,0.351772278547287,0.6251146197319031
1740578199504087600,13.137087646484375,0.6881244778633118,-0.3499639928340912,-0.634711742401123
1740578199600337400,13.23333740234375,0.7041454315185547,-0.30274897813796997,-0.6404951810836792
1740578199696587500,13.32958740234375,0.6861656904220581,-0.3219161331653595,-0.6475735902786255
1740578199792837400,13.42583740234375,0.674543023109436,-0.33831334114074707,-0.6502323150634766
1740578199889087500,13.52208740234375,0.6785418391227722,-0.32110539078712463,-0.6549978256225586
1740578199985337600,13.618337646484376,0.680138885974884,-0.3145810663700104,-0.6567695736885071
1740578200081587500,13.71458740234375,0.6632311940193176,-0.3496389091014862,-0.6557157039642334
1740578200177837600,13.810837646484375,0.6594594120979309,-0.36870840191841125,-0.6462627053260803
1740578200274087400,13.90708740234375,0.6567553877830505,-0.39401504397392273,-0.6327055096626282
1740578200370337500,14.003337646484376,0.6504807472229004,-0.43413591384887695,-0.613524317741394
1740578200562837500,14.19583740234375,0.6557027101516724,-0.46241575479507446,-0.5859121084213257
1740578200659087400,14.29208740234375,0.6581975221633911,-0.4760769009590149,-0.5748670697212219
1740578200755337500,14.38833740234375,0.6608980894088745,-0.47696495056152344,-0.5698807239532471
1740578200851587600,14.484587646484375,0.6619645953178406,-0.482557088136673,-0.5641999840736389
1740578200947837400,14.58083740234375,0.6629955768585205,-0.4876724183559418,-0.5593903660774231
1740578201044087600,14.677087646484376,0.6635317206382751,-0.4911532998085022,-0.5561782121658325
1740578201140337400,14.77333740234375,0.6631360650062561,-0.49177107214927673,-0.5554662942886353
1740578201236587500,14.86958740234375,0.6626825928688049,-0.49407362937927246,-0.5538548231124878
1740578201332837400,14.96583740234375,0.6618912220001221,-0.4965972304344177,-0.5525868535041809
1740578201429087500,15.06208740234375,0.6599084734916687,-0.5009347200393677,-0.5509902238845825
1740578201621587500,15.25458740234375,0.6624384522438049,-0.5088040232658386,-0.544268786907196
1740578201717837600,15.350837646484376,0.6567164659500122,-0.5255672335624695,-0.5366949439048767
1740578201814087400,15.44708740234375,0.6552702784538269,-0.5387000441551208,-0.5275029540061951
1740578201910337500,15.543337646484375,0.6550756692886353,-0.5423480272293091,-0.5243548154830933
1740578202006587400,15.63958740234375,0.651699960231781,-0.5513617992401123,-0.5196962356567383
1740578202102837500,15.73583740234375,0.6447986960411072,-0.5686904788017273,-0.5104321837425232
1740578202199087400,15.83208740234375,-0.6391429305076599,0.5840140581130981,0.5004132986068726
1740578202295337500,15.92833740234375,-0.6354823112487793,0.598798930644989,0.48640763759613037
1740578202391587600,16.024587646484374,-0.6294710040092468,0.6147116422653198,0.47170308232307434
1740578202487837400,16.12083740234375,-0.6315405964851379,0.6173021197319031,0.4646688997745514
1740578202584087600,16.217087646484377,-0.6426990628242493,0.6091770529747009,0.4601244032382965
1740578202680337400,16.31333740234375,-0.674641489982605,0.5798951983451843,0.4482395648956299
1740578202776587500,16.40958740234375,-0.6743053793907166,0.5923907160758972,0.4129672646522522
1740578202872837400,16.50583740234375,-0.666377604007721,0.6050640940666199,0.3865354657173157
1740578202969087500,16.60208740234375,-0.6717618703842163,0.5980381369590759,0.4234673082828522
1740578203065337600,16.698337646484376,-0.6721093058586121,0.6034737825393677,0.40077757835388184
1740578203161587500,16.79458740234375,-0.6675463318824768,0.6144818067550659,0.38368654251098633
1740578203257837600,16.890837646484375,-0.6708353757858276,0.6194090247154236,0.3704780340194702
1740578203354087400,16.98708740234375,-0.6751653552055359,0.6233903169631958,0.3431956171989441
1740578203450337500,17.083337646484374,-0.6755531430244446,0.6245421767234802,0.2909069061279297
1740578203546587400,17.17958740234375,-0.6753084659576416,0.6375440955162048,0.2873058617115021
1740578203642837500,17.27583740234375,-0.6453997492790222,0.6554621458053589,0.2263718992471695
1740578203739087400,17.37208740234375,-0.6437071561813354,0.6688583493232727,0.22749195992946625
1740578203835337500,17.46833740234375,-0.6298531889915466,0.6934544444084167,0.24301639199256897
1740578203931587600,17.564587646484377,-0.5890917181968689,0.7059083580970764,0.1834772676229477
1740578204027837400,17.66083740234375,-0.558235228061676,0.7206255793571472,0.1831430047750473
1740578204124087600,17.757087646484376,-0.5665582418441772,0.720217764377594,0.23729149997234344
1740578204220337400,17.85333740234375,-0.5203911066055298,0.7531033754348755,0.24661025404930115
1740578204316587500,17.94958740234375,-0.4405163526535034,0.8017951250076294,0.219105064868927
1740578204412837400,18.04583740234375,-0.43869322538375854,0.803656280040741,0.22542457282543182
1740578204509087500,18.14208740234375,-0.518070638179779,0.7659420371055603,0.2941719889640808
1740578204701587500,18.33458740234375,-0.31059369444847107,0.743723452091217,-0.1941785216331482
1740578204797837600,18.430837646484374,-0.3359675407409668,0.744312584400177,-0.16898298263549805
1740578204894087400,18.52708740234375,-0.4212202727794647,0.7599236369132996,-0.06979075819253922
1740578204990337500,18.623337646484377,-0.27277445793151855,0.6736393570899963,-0.2840484380722046
1740578205086587400,18.71958740234375,-0.23668475449085236,0.6373598575592041,-0.3330818712711334
1740578205182837500,18.81583740234375,-0.2924003303050995,0.6527072191238403,-0.29660460352897644
1740578205279087400,18.91208740234375,-0.4271999001502991,0.702542245388031,-0.14446423947811127
1740578205375337500,19.00833740234375,0.6636383533477783,-0.37260791659355164,-0.6051176190376282
1740578205471587600,19.104587646484376,0.615306556224823,-0.2724989652633667,-0.6539590954780579
1740578205567837400,19.20083740234375,0.5797402262687683,-0.2092314064502716,-0.6768606901168823
1740578205760337400,19.39333740234375,0.5622913241386414,-0.22412073612213135,-0.6884498596191406
1740578205856587500,19.48958740234375,0.5384275317192078,-0.22430677711963654,-0.7110776305198669
1740578205952837400,19.58583740234375,0.4864724576473236,-0.15846869349479675,-0.7349939346313477
1740578206049087500,19.68208740234375,0.4741785228252411,-0.15827861428260803,-0.7385019659996033
1740578206145337600,19.778337646484374,0.49553969502449036,-0.21532490849494934,-0.7447630763053894
1740578206241587500,19.87458740234375,0.498576283454895,-0.26199793815612793,-0.7413397431373596
1740578206337837600,19.970837646484377,0.49230846762657166,-0.2535664439201355,-0.7494406700134277
1740578206434087400,20.06708740234375,0.4869414269924164,-0.22452065348625183,-0.7583109736442566
1740578206530337500,20.163337646484376,0.49805381894111633,-0.26063957810401917,-0.7532036304473877
1740578206722837500,20.35583740234375,0.5201889276504517,-0.34831511974334717,-0.7309027910232544
1740578206819087400,20.45208740234375,0.5225279927253723,-0.3412918746471405,-0.7345752716064453
1740578206915337500,20.54833740234375,0.5203520655632019,-0.35146263241767883,-0.7347755432128906
1740578207011587600,20.644587646484375,0.5200998783111572,-0.39940643310546875,-0.7203424572944641
1740578207107837400,20.74083740234375,0.5199607610702515,-0.49270471930503845,-0.678486704826355
1740578207204087600,20.837087646484374,0.5190870761871338,-0.542476236820221,-0.6455837488174438
1740578207300337400,20.93333740234375,0.5398002862930298,-0.43777942657470703,-0.6786837577819824
1740578207396587500,21.02958740234375,0.5441226363182068,-0.2855243384838104,-0.7005589008331299
1740578207492837400,21.12583740234375,0.5679420828819275,-0.25730741024017334,-0.6844949126243591
1740578207685337600,21.318337646484373,-0.6685101389884949,0.6502139568328857,0.33347955346107483
1740578207781587500,21.41458740234375,-0.6115198731422424,0.7140922546386719,0.22000452876091003
1740578207877837600,21.510837646484376,-0.5928269624710083,0.7283147573471069,0.19323204457759857
1740578207974087400,21.60708740234375,-0.6611915230751038,0.6707836985588074,0.3029942214488983
1740578208070337500,21.703337646484375,0.6744261980056763,-0.5501794815063477,-0.4889363944530487
1740578208166587400,21.79958740234375,0.5891191959381104,-0.2325114905834198,-0.6820329427719116
1740578208262837500,21.89583740234375,0.5472131371498108,-0.2010589838027954,-0.6876890659332275
1740578208359087400,21.99208740234375,0.5769798159599304,-0.32618841528892517,-0.7091799378395081
1740578208455337500,22.08833740234375,-0.5452470183372498,0.5665202736854553,0.6178544163703918
1740578208551587600,22.184587646484374,0.552107572555542,-0.29318222403526306,-0.7321267127990723
1740578208647837400,22.28083740234375,0.5464576482772827,-0.2908378541469574,-0.7130663990974426
1740578208744087600,22.377087646484377,0.582502007484436,-0.3207215964794159,-0.6947048902511597
1740578208840337400,22.47333740234375,0.6197440028190613,-0.3777066171169281,-0.6425929665565491
1740578208936587500,22.56958740234375,0.6538744568824768,-0.5535591244697571,-0.5144554972648621
1740578209032837400,22.66583740234375,-0.6395732760429382,0.6329667568206787,0.424364298582077
1740578209129087500,22.76208740234375,0.63206547498703,-0.406907320022583,-0.6136544346809387
1740578209225337600,22.858337646484376,0.6049289703369141,-0.30569401383399963,-0.6636335253715515
1740578209321587500,22.95458740234375,0.5567295551300049,-0.19515271484851837,-0.6772250533103943
1740578209417837600,23.050837646484375,0.5593714118003845,-0.4476497769355774,-0.6728737950325012
1740578209514087400,23.14708740234375,0.5797922015190125,-0.23980830609798431,-0.7324935793876648
1740578209610337500,23.243337646484374,0.5429257750511169,-0.3043038249015808,-0.6974183320999146
1740578209802837500,23.43583740234375,0.5765695571899414,-0.2961116135120392,-0.6855225563049316
1740578209899087400,23.53208740234375,0.6267679929733276,-0.40776944160461426,-0.6336349248886108
1740578209995337500,23.62833740234375,0.6590672731399536,-0.49179086089134216,-0.5616123676300049
1740578210091587600,23.724587646484373,0.6501567363739014,-0.4639982581138611,-0.5841019749641418
1740578210187837400,23.82083740234375,0.5971136093139648,-0.34775206446647644,-0.6446069478988647
1740578210284087600,23.917087646484376,0.5700759887695312,-0.20055614411830902,-0.6757597327232361
1740578210380337400,24.01333740234375,0.5275061726570129,-0.2860127389431,-0.6512240171432495
1740578210476587500,24.10958740234375,0.5553545355796814,-0.38859522342681885,-0.720044732093811
1740578210572837400,24.20583740234375,0.5485861301422119,-0.35786888003349304,-0.735799252986908
1740578210669087500,24.30208740234375,0.5458601713180542,-0.2951960861682892,-0.730290949344635
1740578210861587500,24.49458740234375,0.5787431597709656,-0.2641916275024414,-0.6841610670089722
1740578210957837600,24.590837646484374,0.6246834397315979,-0.3976582884788513,-0.6303709149360657
1740578211054087400,24.68708740234375,0.6670782566070557,-0.47844916582107544,-0.5660222768783569
1740578211150337500,24.783337646484377,0.637428879737854,-0.357059121131897,-0.6415621638298035
1740578211246587400,24.87958740234375,0.5802109241485596,-0.3633694052696228,-0.6487476825714111
1740578211342837500,24.97583740234375,0.5600804090499878,-0.1924862265586853,-0.6715242266654968
1740578211439087400,25.07208740234375,0.5228148698806763,-0.28400304913520813,-0.6535455584526062
1740578211535337500,25.16833740234375,0.5536588430404663,-0.3441772162914276,-0.7392387986183167
1740578211631587600,25.264587646484376,0.5337647199630737,-0.2588001787662506,-0.7168643474578857
1740578211824087600,25.457087646484375,0.5594543218612671,-0.2704175114631653,-0.6877779364585876
1740578211920337400,25.55333740234375,0.6068889498710632,-0.39904260635375977,-0.6379573941230774
1740578212016587500,25.64958740234375,0.662483811378479,-0.3812990188598633,-0.6159120202064514
1740578212112837400,25.74583740234375,0.6061995029449463,-0.3315333425998688,-0.6459543704986572
1740578212209087500,25.84208740234375,0.559251070022583,-0.32884451746940613,-0.6449170708656311
1740578212305337600,25.938337646484374,0.5360018014907837,-0.19182716310024261,-0.6522321105003357
1740578212401587500,26.03458740234375,0.5081419944763184,-0.3965630531311035,-0.7127111554145813
1740578212497837600,26.130837646484373,0.5124776363372803,-0.2530211806297302,-0.7330173850059509
1740578212594087400,26.22708740234375,0.4676351249217987,-0.2831285297870636,-0.6716621518135071
1740578212690337500,26.323337646484376,0.44843602180480957,-0.23561809957027435,-0.6688405871391296
1740578212786587400,26.41958740234375,0.43483078479766846,-0.31780868768692017,-0.6509133577346802
1740578212882837500,26.51583740234375,0.485217422246933,-0.3631267547607422,-0.6582152843475342
1740578212979087400,26.61208740234375,0.5300312638282776,-0.43117719888687134,-0.6157878041267395
1740578213075337500,26.70833740234375,0.5291976928710938,-0.33614927530288696,-0.6678858995437622
1740578213171587600,26.804587646484375,0.46019572019577026,-0.33858492970466614,-0.6507413983345032
1740578213267837400,26.90083740234375,0.4314897358417511,-0.28256261348724365,-0.6492744088172913
1740578213364087600,26.997087646484374,0.3828401565551758,-0.18516716361045837,-0.6105133295059204
1740578213460337400,27.09333740234375,0.3642541170120239,-0.29909616708755493,-0.7412959337234497
1740578213556587500,27.18958740234375,0.3538133502006531,-0.2707526683807373,-0.7424428462982178
1740578213652837400,27.28583740234375,0.3364277184009552,-0.3108207881450653,-0.6696274876594543
1740578213749087500,27.38208740234375,0.3691999912261963,-0.25035762786865234,-0.6635230183601379
1740578213845337600,27.478337646484373,0.4062771201133728,-0.33522504568099976,-0.6468129754066467
1740578213941587500,27.57458740234375,0.46946215629577637,-0.30038774013519287,-0.6682741641998291
1740578214037837600,27.670837646484376,0.4757879078388214,-0.18722136318683624,-0.715897798538208
1740578214134087400,27.76708740234375,0.44823646545410156,-0.33950328826904297,-0.6484997868537903
1740578214230337500,27.863337646484375,0.44164639711380005,-0.23073039948940277,-0.6366590261459351
1740578214326587400,27.95958740234375,0.38504302501678467,-0.22524863481521606,-0.5521165132522583
1740578214422837500,28.05583740234375,0.3619488477706909,-0.31631946563720703,-0.7644859552383423
1740578214519087400,28.15208740234375,0.3330117166042328,-0.2808810770511627,-0.740466833114624
1740578214615337500,28.24833740234375,0.3357801139354706,-0.2678990364074707,-0.6583892703056335
1740578214711587600,28.344587646484374,0.3631235361099243,-0.25447964668273926,-0.6686290502548218
1740578214904087600,28.537087646484373,0.4669087529182434,-0.23610158264636993,-0.6968677639961243
1740578215000337400,28.63333740234375,0.47295165061950684,-0.19541595876216888,-0.6934528946876526
1740578215096587500,28.72958740234375,0.4557245075702667,-0.3405965566635132,-0.6385754942893982
1740578215192837400,28.82583740234375,0.46394336223602295,-0.25950393080711365,-0.6291364431381226
1740578215289087500,28.92208740234375,0.4011537730693817,-0.293929785490036,-0.5747771263122559
1740578215385337600,29.018337646484376,0.37633416056632996,-0.3455369770526886,-0.7483443021774292
1740578215481587500,29.11458740234375,0.36052829027175903,-0.3177929222583771,-0.7605410218238831
1740578215577837600,29.210837646484375,0.35418206453323364,-0.3060931861400604,-0.6816487908363342
1740578215674087400,29.30708740234375,0.38122832775115967,-0.2529703974723816,-0.6634418368339539
1740578215770337500,29.403337646484374,0.39912235736846924,-0.3055366277694702,-0.6449711322784424
1740578215866587400,29.49958740234375,0.4545765221118927,-0.3366142809391022,-0.6678914427757263
1740578215962837500,29.59583740234375,0.4697548747062683,-0.16474851965904236,-0.7107939720153809
1740578216059087400,29.69208740234375,0.42986127734184265,-0.3444458842277527,-0.6430479288101196
1740578216155337500,29.78833740234375,0.43377259373664856,-0.28620147705078125,-0.6311013698577881
1740578216251587600,29.884587646484373,0.3983031213283539,-0.23843106627464294,-0.5922959446907043
1740578216347837400,29.98083740234375,0.3502742350101471,-0.29671838879585266,-0.7357988357543945
1740578216444087600,30.077087646484376,0.3091946840286255,-0.3302721679210663,-0.7398436069488525
1740578216540337400,30.17333740234375,0.34158167243003845,-0.281803697347641,-0.6697208285331726
1740578216636587500,30.26958740234375,0.36824268102645874,-0.2560655176639557,-0.6522564888000488
1740578216732837400,30.36583740234375,0.38899844884872437,-0.31743323802948,-0.6489196419715881
1740578216925337600,30.558337646484375,0.49223843216896057,-0.2265734076499939,-0.7110616564750671
1740578217021587500,30.65458740234375,0.4523126184940338,-0.34152135252952576,-0.6540699005126953
1740578217117837600,30.750837646484374,0.4700672924518585,-0.2525807023048401,-0.6295357942581177
1740578217214087400,30.84708740234375,0.4184173047542572,-0.2542606592178345,-0.5191066265106201
1740578217310337500,30.943337646484373,0.34340643882751465,-0.3679625391960144,-0.7479228377342224
1740578217406587400,31.03958740234375,0.3401535749435425,-0.3017823100090027,-0.6796442866325378
1740578217502837500,31.13583740234375,0.36269181966781616,-0.2808007001876831,-0.6417075991630554
1740578217599087400,31.23208740234375,0.3771298825740814,-0.2998713254928589,-0.6360415816307068
1740578217695337500,31.32833740234375,0.4374922811985016,-0.3182756006717682,-0.677314817905426
1740578217791587600,31.424587646484376,0.5021165013313293,-0.26955196261405945,-0.6933135390281677
1740578217887837400,31.52083740234375,0.5097743272781372,-0.2816693186759949,-0.6884797215461731
1740578217984087600,31.617087646484375,0.4754795730113983,-0.32398250699043274,-0.645736038684845
1740578218080337400,31.71333740234375,0.4542376697063446,-0.2990941107273102,-0.6498628258705139
1740578218176587500,31.80958740234375,0.41393110156059265,-0.21584025025367737,-0.621937096118927
1740578218272837400,31.90583740234375,0.34887826442718506,-0.30677559971809387,-0.6991980075836182
1740578218369087500,32.00208740234375,0.3134986460208893,-0.3922431170940399,-0.7350239157676697
1740578218465337600,32.098337646484374,0.3600749969482422,-0.29630911350250244,-0.6895273923873901
1740578218561587500,32.19458740234375,0.38546809554100037,-0.2769169509410858,-0.6677254438400269
1740578218657837600,32.29083764648438,0.42041897773742676,-0.3333023488521576,-0.6466919183731079
1740578218754087400,32.38708740234375,0.4841199517250061,-0.36859264969825745,-0.6450324058532715
1740578218850337500,32.48333764648437,0.5374422669410706,-0.36712712049484253,-0.6531004905700684
1740578218946587400,32.57958740234375,0.4954216480255127,-0.26675498485565186,-0.6622582077980042
1740578219042837500,32.67583740234375,0.4640030860900879,-0.34335631132125854,-0.6331844329833984
1740578219139087400,32.77208740234375,0.4463833272457123,-0.2358497530221939,-0.6284182667732239
1740578219235337500,32.86833740234375,0.3658614754676819,-0.3326706886291504,-0.6745051145553589
1740578219331587600,32.964587646484375,0.3510577082633972,-0.32955703139305115,-0.7667253017425537
1740578219427837400,33.06083740234375,0.34138548374176025,-0.3070944547653198,-0.6914534568786621
1740578219524087600,33.15708764648438,0.3872423470020294,-0.26148298382759094,-0.6756352782249451
1740578219620337400,33.25333740234375,0.40558913350105286,-0.2901228964328766,-0.6643561720848083
1740578219716587500,33.34958740234375,0.456026554107666,-0.31361865997314453,-0.6670588850975037
1740578219812837400,33.44583740234375,0.520115315914154,-0.28644028306007385,-0.6853607892990112
1740578219909087500,33.54208740234375,0.493369996547699,-0.3096761703491211,-0.6506638526916504
1740578220005337600,33.63833764648437,0.4651089310646057,-0.34549251198768616,-0.6278657913208008
1740578220101587500,33.73458740234375,0.4544493854045868,-0.2518230378627777,-0.6157007813453674
1740578220197837600,33.830837646484376,0.3970288634300232,-0.35972532629966736,-0.7100968360900879
1740578220294087400,33.92708740234375,0.3462381064891815,-0.3636396527290344,-0.7442177534103394
1740578220390337500,34.02333764648437,0.3447122573852539,-0.36106300354003906,-0.7454712390899658
1740578220486587400,34.11958740234375,0.37541717290878296,-0.3060868978500366,-0.6865551471710205
1740578220582837500,34.21583740234375,0.4047584533691406,-0.2838509678840637,-0.6618507504463196
1740578220679087400,34.31208740234375,0.4361984133720398,-0.3216170370578766,-0.6286513209342957
1740578220775337500,34.40833740234375,0.5066758394241333,-0.3666316866874695,-0.6462691426277161
1740578220871587600,34.504587646484374,0.5418961048126221,-0.32253071665763855,-0.6769071817398071
1740578220967837400,34.60083740234375,0.4935068190097809,-0.3799818754196167,-0.6384556889533997
1740578221064087600,34.69708764648438,0.48096415400505066,-0.2968132793903351,-0.6374179124832153
1740578221160337400,34.79333740234375,0.42936739325523376,-0.23267024755477905,-0.5920039415359497
1740578221256587500,34.88958740234375,0.39672812819480896,-0.3002951145172119,-0.7400763034820557
1740578221352837400,34.98583740234375,0.35150036215782166,-0.37835800647735596,-0.7284613847732544
1740578221449087500,35.08208740234375,0.3841537535190582,-0.3255898356437683,-0.6660060882568359
1740578221545337600,35.17833764648437,0.42792001366615295,-0.29385605454444885,-0.6540834307670593
1740578221641587500,35.27458740234375,0.47264039516448975,-0.3221298158168793,-0.632520854473114
1740578221737837600,35.370837646484375,0.553490161895752,-0.39987924695014954,-0.6247386336326599
1740578221930337500,35.56333764648438,0.5373804569244385,-0.41793760657310486,-0.6083184480667114
1740578222026587400,35.65958740234375,0.5120431184768677,-0.296321839094162,-0.6183041930198669
1740578222122837500,35.75583740234375,0.4456115961074829,-0.23843814432621002,-0.547723650932312
1740578222219087400,35.85208740234375,0.4064253270626068,-0.3977576196193695,-0.7290579080581665
1740578222315337500,35.94833740234375,0.3706872761249542,-0.37211063504219055,-0.7184733748435974
1740578222411587600,36.04458764648437,0.40260177850723267,-0.29491689801216125,-0.6652471423149109
1740578222507837400,36.14083740234375,0.428259015083313,-0.3082539141178131,-0.6591082215309143
1740578222604087600,36.237087646484376,0.4795014560222626,-0.379364550113678,-0.6454961895942688
1740578222700337400,36.33333740234375,0.5567851066589355,-0.3830433785915375,-0.6324333548545837
1740578222796587500,36.42958740234375,0.5842625498771667,-0.4305722117424011,-0.6010838150978088
1740578222892837400,36.52583740234375,0.5596482753753662,-0.3346938192844391,-0.655855119228363
1740578222989087500,36.62208740234375,0.4915124177932739,-0.3890683352947235,-0.6224955916404724
1740578223085337600,36.71833764648437,0.45109453797340393,-0.22205238044261932,-0.6400735378265381
1740578223181587500,36.81458740234375,0.3746805191040039,-0.2554335296154022,-0.5877478122711182
1740578223277837600,36.910837646484374,0.36567190289497375,-0.403801828622818,-0.7433663010597229
1740578223374087400,37.00708740234375,0.3726152181625366,-0.3550489842891693,-0.6802690029144287
1740578223470337500,37.10333764648438,0.4201411008834839,-0.28261491656303406,-0.6685385704040527
1740578223566587400,37.19958740234375,0.46196871995925903,-0.3250890374183655,-0.6494041681289673
1740578223662837500,37.29583740234375,0.5248844027519226,-0.37659165263175964,-0.6278256177902222
1740578223759087400,37.39208740234375,0.5960648655891418,-0.430544376373291,-0.610276997089386
1740578223855337500,37.48833740234375,0.5261527299880981,-0.35001909732818604,-0.6329702734947205
1740578223951587600,37.58458764648437,0.48966389894485474,-0.33704760670661926,-0.6323778033256531
1740578224047837400,37.68083740234375,0.4440767168998718,-0.22797942161560059,-0.6292768716812134
1740578224144087600,37.777087646484375,0.41066426038742065,-0.36485186219215393,-0.7121407389640808
1740578224240337400,37.87333740234375,0.3985564708709717,-0.33594441413879395,-0.7372924089431763
1740578224336587500,37.96958740234375,0.39544594287872314,-0.3340824246406555,-0.6782088279724121
1740578224432837400,38.06583740234375,0.4354817867279053,-0.27903273701667786,-0.6727324724197388
1740578224529087500,38.16208740234375,0.4663347601890564,-0.32645249366760254,-0.6361526846885681
1740578224625337600,38.25833764648438,0.551220178604126,-0.4381009638309479,-0.6124234795570374
1740578224721587500,38.35458740234375,0.6264452338218689,-0.49565163254737854,-0.5630149841308594
1740578224817837600,38.45083764648437,0.5368682742118835,-0.42733362317085266,-0.5988335609436035
1740578225010337500,38.643337646484376,0.4452956020832062,-0.2294401228427887,-0.5757671594619751
1740578225106587400,38.73958740234375,0.4376099705696106,-0.3850672245025635,-0.7110547423362732
1740578225202837500,38.83583740234375,0.40399008989334106,-0.32789525389671326,-0.7213569283485413
1740578225299087400,38.93208740234375,0.41475358605384827,-0.34496980905532837,-0.7133491635322571
1740578225395337500,39.02833740234375,0.42112550139427185,-0.3571682572364807,-0.6495147347450256
1740578225491587600,39.12458764648437,0.4735884368419647,-0.33260098099708557,-0.6440790295600891
1740578225587837400,39.22083740234375,0.5326055884361267,-0.4296487867832184,-0.6047009825706482
1740578225684087600,39.317087646484374,0.5975225567817688,-0.43110331892967224,-0.5849378705024719
1740578225780337400,39.41333740234375,0.6178520917892456,-0.493985652923584,-0.5670308470726013
1740578225876587500,39.50958740234375,0.5245779752731323,-0.4499591588973999,-0.5898597836494446
1740578226069087500,39.70208740234375,0.4171724319458008,-0.2554171085357666,-0.5561594367027283
1740578226165337600,39.79833764648438,0.44911494851112366,-0.4030308127403259,-0.7283388376235962
1740578226261587500,39.89458740234375,0.40723127126693726,-0.40378451347351074,-0.6720460653305054
1740578226357837600,39.99083764648437,0.44575008749961853,-0.3539727032184601,-0.6378798484802246
1740578226454087400,40.08708740234375,0.4970255196094513,-0.35398685932159424,-0.6250802874565125
1740578226550337500,40.183337646484375,0.5612857341766357,-0.4553679823875427,-0.5753377676010132
1740578226646587400,40.27958740234375,0.6399113535881042,-0.539854109287262,-0.5042006373405457
1740578226742837500,40.37583740234375,0.6522154808044434,-0.5108450055122375,-0.5187886953353882
1740578226839087400,40.47208740234375,0.5610508918762207,-0.4406895637512207,-0.5692457556724548
1740578227031587600,40.66458764648438,0.4249972403049469,-0.2983059883117676,-0.5621622800827026
1740578227127837400,40.76083740234375,0.46402648091316223,-0.4397549331188202,-0.7093539834022522
1740578227224087600,40.85708764648437,0.4123224914073944,-0.39175915718078613,-0.6776098012924194
1740578227320337400,40.95333740234375,0.4422522485256195,-0.32384172081947327,-0.6583982110023499
1740578227416587500,41.04958740234375,0.477929949760437,-0.34888091683387756,-0.6462526321411133
1740578227512837400,41.14583740234375,0.5361412763595581,-0.4090885818004608,-0.6108118295669556
1740578227609087500,41.24208740234375,0.6178776621818542,-0.462167888879776,-0.5626622438430786
1740578227705337600,41.338337646484376,0.6397397518157959,-0.5059237480163574,-0.5236688852310181
1740578227801587500,41.43458740234375,0.6097080707550049,-0.4600789546966553,-0.5722243189811707
1740578227897837600,41.53083764648437,0.5289900898933411,-0.4560788869857788,-0.5751208662986755
1740578228090337500,41.723337646484374,0.4165675640106201,-0.25465670228004456,-0.5744194388389587
1740578228186587400,41.81958740234375,0.436765193939209,-0.43348565697669983,-0.7236669659614563
1740578228282837500,41.91583740234375,0.42504921555519104,-0.419266015291214,-0.6980522871017456
1740578228379087400,42.01208740234375,0.4359082281589508,-0.3704623281955719,-0.6354315876960754
1740578228475337500,42.10833740234375,0.4932691752910614,-0.3869628310203552,-0.6148489713668823
1740578228571587600,42.20458764648438,0.5644928216934204,-0.4796554744243622,-0.5526046752929688
1740578228667837400,42.30083740234375,0.6616126298904419,-0.5658096671104431,-0.46212780475616455
1740578228764087600,42.39708764648437,0.6590235233306885,-0.6194206476211548,-0.4201730787754059
1740578228860337400,42.49333740234375,0.5963441133499146,-0.5293529629707336,-0.5092943906784058
1740578228956587500,42.58958740234375,0.5589678883552551,-0.3458966910839081,-0.5805919170379639
1740578229052837400,42.68583740234375,0.4662235379219055,-0.30693772435188293,-0.5314521193504333
1740578229149087500,42.78208740234375,0.49132147431373596,-0.4881784915924072,-0.6533530354499817
1740578229245337600,42.878337646484376,0.4641500413417816,-0.5014724135398865,-0.6532074809074402
1740578229341587500,42.97458740234375,0.47727105021476746,-0.41290268301963806,-0.6053845286369324
1740578229437837600,43.07083764648438,0.5305003523826599,-0.40623244643211365,-0.5988691449165344
1740578229534087400,43.16708740234375,0.5729570984840393,-0.4452762305736542,-0.5475304126739502
1740578229630337500,43.26333764648437,0.6443077921867371,-0.600056529045105,-0.44248509407043457
1740578229726587400,43.35958740234375,0.6694667339324951,-0.6558684706687927,-0.34852564334869385
1740578229822837500,43.45583740234375,0.6243547201156616,-0.596843421459198,-0.42812681198120117
1740578229919087400,43.55208740234375,0.6148934960365295,-0.48584112524986267,-0.4929221272468567
1740578230015337500,43.64833740234375,0.5663880109786987,-0.41348206996917725,-0.5211254954338074
1740578230111587600,43.744587646484376,0.5523803234100342,-0.5751139521598816,-0.5284257531166077
1740578230207837400,43.84083740234375,0.532188892364502,-0.5394025444984436,-0.5648316740989685
1740578230304087600,43.93708764648437,0.5383812189102173,-0.4722335934638977,-0.5927457213401794
1740578230400337400,44.03333740234375,0.5057752132415771,-0.47764134407043457,-0.5440480709075928
1740578230496587500,44.12958740234375,0.5482518076896667,-0.525039553642273,-0.5269944071769714
1740578230592837400,44.22583740234375,0.5994017124176025,-0.5155077576637268,-0.5026772022247314
1740578230689087500,44.32208740234375,0.6438148021697998,-0.5596377849578857,-0.4446713328361511
1740578230785337600,44.418337646484375,0.6773639917373657,-0.6170564889907837,-0.3682042360305786
1740578230881587500,44.51458740234375,0.6868264079093933,-0.6353752613067627,-0.3246448040008545
1740578230977837600,44.61083764648438,0.6716002821922302,-0.6917428970336914,-0.2653000056743622
1740578231170337500,44.80333764648437,0.6619859337806702,-0.538764476776123,-0.46065905690193176
1740578231266587400,44.89958740234375,0.5793934464454651,-0.3900672495365143,-0.5707129836082458
1740578231362837500,44.99583740234375,0.5400795340538025,-0.4484933912754059,-0.5971165299415588
1740578231459087400,45.09208740234375,0.5521037578582764,-0.515479564666748,-0.6172110438346863
1740578231555337500,45.18833740234375,0.4863244593143463,-0.4603002667427063,-0.6108134984970093
1740578231651587600,45.284587646484376,0.5060639381408691,-0.3645280599594116,-0.6261794567108154
1740578231747837400,45.38083740234375,0.5361533164978027,-0.4425944685935974,-0.5813053250312805
1740578231844087600,45.47708764648438,0.5953007936477661,-0.5400677919387817,-0.5073310732841492
1740578231940337400,45.57333740234375,0.6553056240081787,-0.6438778638839722,-0.3826058506965637
1740578232036587500,45.66958740234375,0.6716501116752625,-0.5708929300308228,-0.44315510988235474
1740578232132837400,45.76583740234375,0.5664246082305908,-0.4539290964603424,-0.5546470880508423
1740578232229087500,45.86208740234375,0.5021472573280334,-0.28777700662612915,-0.6236836314201355
1740578232325337600,45.958337646484374,0.42984768748283386,-0.30350521206855774,-0.6103755831718445
1740578232421587500,46.05458740234375,0.4631343483924866,-0.4640020430088043,-0.6931452751159668
1740578232517837600,46.150837646484376,0.4066651165485382,-0.35594603419303894,-0.7047332525253296
1740578232614087400,46.24708740234375,0.4224320948123932,-0.3802824020385742,-0.6919044852256775
1740578232710337500,46.34333764648437,0.42839315533638,-0.30956023931503296,-0.6682684421539307
1740578232806587400,46.43958740234375,0.48065823316574097,-0.36899876594543457,-0.6436675786972046
1740578232902837500,46.53583740234375,0.5480173230171204,-0.47561773657798767,-0.5747705698013306
1740578232999087400,46.63208740234375,0.6345482468605042,-0.521708071231842,-0.5166022777557373
1740578233095337500,46.72833740234375,0.6341413855552673,-0.5306975841522217,-0.5271602869033813
1740578233191587600,46.824587646484375,0.5001936554908752,-0.399673193693161,-0.618002712726593
1740578233287837400,46.92083740234375,0.4218346178531647,-0.19287227094173431,-0.6520482301712036
1740578233384087600,47.01708764648438,0.354339599609375,-0.20477734506130219,-0.5720924735069275
1740578233480337400,47.11333740234375,0.4081486463546753,-0.35871878266334534,-0.7561152577400208
1740578233576587500,47.20958740234375,0.3696145713329315,-0.333391010761261,-0.7153664827346802
1740578233672837400,47.30583740234375,0.38111668825149536,-0.2685970366001129,-0.6737868785858154
1740578233769087500,47.40208740234375,0.42074498534202576,-0.2646335959434509,-0.6703357696533203
1740578233865337600,47.49833764648437,0.5010404586791992,-0.36222854256629944,-0.6362600922584534
1740578233961587500,47.59458740234375,0.6332492828369141,-0.4895637333393097,-0.5469212532043457
1740578234057837600,47.690837646484376,0.5723183751106262,-0.3340543806552887,-0.6392495632171631
1740578234250337500,47.88333764648438,0.43501824140548706,-0.1660669595003128,-0.6548277139663696
1740578234346587400,47.97958740234375,0.3726109564304352,-0.2542146146297455,-0.6011099815368652
1740578234442837500,48.07583740234375,0.4103984832763672,-0.37849584221839905,-0.745778501033783
1740578234539087400,48.17208740234375,0.3722114562988281,-0.2994830012321472,-0.6999134421348572
1740578234635337500,48.26833740234375,0.3940810263156891,-0.2787529528141022,-0.6735138893127441
1740578234731587600,48.364587646484374,0.42738234996795654,-0.28675124049186707,-0.6624225378036499
1740578234827837400,48.46083740234375,0.4999386668205261,-0.3505498766899109,-0.6406553983688354
1740578234924087600,48.557087646484376,0.6549823880195618,-0.5034534931182861,-0.5325278043746948
1740578235020338000,48.653337890625,0.577967643737793,-0.3930513262748718,-0.5893939137458801
1740578235116588000,48.749588134765624,0.5439090728759766,-0.3449140787124634,-0.6187962889671326
1740578235212838000,48.845837890625,0.5079241394996643,-0.4042532444000244,-0.5917882323265076
1740578235309088000,48.942087890625,0.42927318811416626,-0.20962701737880707,-0.6133297681808472
1740578235405337900,49.038337890625,0.3863164186477661,-0.3638926148414612,-0.661806583404541
1740578235501588000,49.134587890625,0.3558691442012787,-0.39891356229782104,-0.7052290439605713
1740578235597838000,49.23083813476563,0.3160511255264282,-0.2811317443847656,-0.680793285369873
1740578235694088000,49.327087890625,0.31178542971611023,-0.23908260464668274,-0.6620999574661255
1740578235790338000,49.42333813476562,0.35076412558555603,-0.33631667494773865,-0.640716552734375
1740578235886588000,49.519587890625,0.4317127466201782,-0.4031102657318115,-0.636705219745636
1740578235982838000,49.615838134765625,0.47452855110168457,-0.45301663875579834,-0.6170138716697693
1740578236079087900,49.712087890625,0.3851931393146515,-0.35888954997062683,-0.6548023819923401
1740578236175338000,49.808337890625,0.3285001516342163,-0.38724634051322937,-0.6301193833351135
1740578236271588000,49.904588134765625,0.3128911256790161,-0.22450101375579834,-0.6452273726463318
1740578236367838000,50.000837890625,0.33210283517837524,-0.2883390784263611,-0.6306271553039551
1740578236464088000,50.09708813476563,0.4051525890827179,-0.44322696328163147,-0.6774742603302002
1740578236560338000,50.193337890625,0.40863609313964844,-0.3760371208190918,-0.6278077960014343
1740578236656588000,50.28958813476562,0.43230247497558594,-0.3491145074367523,-0.5984858274459839
1740578236752838000,50.385837890625,0.453910231590271,-0.3977191746234894,-0.5509990453720093
1740578236849088000,50.482087890625,0.5345257520675659,-0.42331820726394653,-0.5423673987388611
1740578236945337900,50.578337890625,0.6322289109230042,-0.5324300527572632,-0.4893653988838196
1740578237041588000,50.674587890625,0.6249741911888123,-0.4302089512348175,-0.49753421545028687
1740578237137838000,50.770838134765626,0.6178381443023682,-0.45495641231536865,-0.4656698405742645
1740578237330338000,50.96333813476563,0.6973207592964172,-0.4688049554824829,-0.44952887296676636
1740578237426588000,51.059587890625,0.7497603297233582,-0.4912746250629425,-0.4424663186073303
1740578237522838000,51.155838134765624,-0.7482891082763672,0.5362473726272583,0.38673755526542664
1740578237619088000,51.252087890625,0.8320088982582092,-0.4501977860927582,-0.3151566982269287
1740578237715338000,51.348337890625,0.8652170896530151,-0.4188917279243469,-0.2701094150543213
1740578237811588000,51.444588134765624,0.8752204179763794,-0.4133067727088928,-0.25056374073028564
1740578237907838000,51.540837890625,-0.8681616187095642,0.4154343605041504,0.24486112594604492
1740578238004088000,51.63708813476563,-0.7894724607467651,0.4374260902404785,0.2405727207660675
1740578238100338000,51.733337890625,-0.8362523913383484,0.35127174854278564,0.25382348895072937
1740578238196588000,51.82958813476562,-0.9069840908050537,0.29596105217933655,0.23699040710926056
1740578238292838000,51.925837890625,-0.8844599723815918,0.31835097074508667,0.20974966883659363
1740578238389088000,52.022087890625,-0.8608426451683044,0.31652477383613586,0.21258816123008728
1740578238485337900,52.118337890625,-0.8847734928131104,0.23902155458927155,0.1833162009716034
1740578238581588000,52.214587890625,-0.8997272253036499,0.0887390673160553,0.16118431091308594
1740578238677838000,52.310838134765625,-0.9138745069503784,-0.023520637303590775,0.10629932582378387
1740578238774088000,52.407087890625,-0.9279164671897888,-0.06323142349720001,0.06912129372358322
1740578238870338000,52.50333813476563,-0.9152084589004517,-0.10195793211460114,0.08860545605421066
1740578238966588000,52.599587890625,-0.9098808169364929,-0.14332625269889832,0.0880436822772026
1740578239062838000,52.69583813476562,-0.9161736369132996,-0.14415553212165833,0.08698739111423492
1740578239159087900,52.792087890625,-0.9303203225135803,-0.11982090026140213,0.0825732946395874
1740578239255338000,52.888337890625,-0.9235433340072632,-0.09779415279626846,0.10866811126470566
1740578239351588000,52.98458813476562,-0.9210152626037598,-0.12179678678512573,0.08257438242435455
1740578239447838000,53.080837890625,-0.9127990007400513,-0.11993752419948578,0.08525242656469345
1740578239544088000,53.177088134765626,-0.8886053562164307,-0.14118893444538116,0.09284526109695435
1740578239640338000,53.273337890625,-0.882329523563385,-0.13459527492523193,0.08538772910833359
1740578239736588000,53.36958813476563,-0.8959213495254517,-0.12109275162220001,0.05710487440228462
1740578239832838000,53.465837890625,-0.9127151370048523,-0.10802415013313293,0.027962252497673035
1740578239929088000,53.562087890625,-0.9147840738296509,-0.09539429098367691,0.03246789053082466
1740578240025337900,53.658337890625,-0.8924007415771484,-0.11405733972787857,0.058162346482276917
1740578240121588000,53.754587890625,-0.8907628059387207,-0.10440444201231003,0.07039491087198257
1740578240217838000,53.850838134765624,-0.8777373433113098,-0.0991186872124672,0.09082794934511185
1740578240314088000,53.947087890625,-0.8949759602546692,-0.08191780000925064,0.07546214759349823
1740578240506588000,54.139587890625,-0.8734384775161743,-0.08803814649581909,0.08599673211574554
1740578240602838000,54.23583813476562,-0.855156421661377,-0.1038215234875679,0.09518363326787949
1740578240699088000,54.332087890625,-0.8613657355308533,-0.11591724306344986,0.07776501029729843
1740578240795338000,54.428337890625,-0.883819580078125,-0.09894061833620071,0.06571191549301147
1740578240891588000,54.52458813476562,-0.8890347480773926,-0.09428688883781433,0.06773049384355545
1740578240987838000,54.620837890625,-0.8861058950424194,-0.09757227450609207,0.07482706010341644
1740578241084088000,54.717088134765625,-0.8571844696998596,-0.11685587465763092,0.10369666665792465
1740578241180338000,54.813337890625,-0.8435037732124329,-0.11773011088371277,0.12187793105840683
1740578241276588000,54.90958813476563,-0.8459612727165222,-0.12102275341749191,0.11474914848804474
1740578241469088000,55.102087890625,-0.861763060092926,-0.0760103389620781,0.12152794748544693
1740578241565337900,55.198337890625,-0.8404949903488159,-0.09069874882698059,0.12686990201473236
1740578241661588000,55.294587890625,-0.8167999386787415,-0.09775470197200775,0.13898365199565887
1740578241757838000,55.39083813476562,-0.8172266483306885,-0.11241111159324646,0.12122275680303574
1740578241854088000,55.487087890625,-0.8262194991111755,-0.10460063070058823,0.11405590921640396
1740578241950338000,55.583338134765626,-0.8308655619621277,-0.10558149963617325,0.1131485253572464
1740578242046588000,55.679587890625,-0.8505209684371948,-0.10147305577993393,0.0924251526594162
1740578242142838000,55.77583813476563,-0.8696115016937256,-0.0832877978682518,0.08174026012420654
1740578242239087900,55.872087890625,-0.84307461977005,-0.10106896609067917,0.10281214118003845
1740578242335338000,55.968337890625,-0.8324565887451172,-0.10076531767845154,0.11613718420267105
1740578242431588000,56.06458813476563,-0.8272798657417297,-0.09297765046358109,0.12157631665468216
1740578242527838000,56.160837890625,-0.8564019203186035,-0.07577649503946304,0.0968240350484848
1740578242624088000,56.257088134765624,-0.8576503992080688,-0.0582062266767025,0.0975700244307518
1740578242720338000,56.353337890625,-0.8333308100700378,-0.0824965089559555,0.1030203178524971
1740578242816588000,56.44958813476563,-0.8095612525939941,-0.09434447437524796,0.11522272229194641
1740578242912838000,56.545837890625,-0.8218569755554199,-0.1049838736653328,0.09230314940214157
1740578243009088000,56.642087890625,-0.8612584471702576,-0.07529280334711075,0.0717238336801529
1740578243105337900,56.738337890625,-0.8819513320922852,-0.07347575575113297,0.05018090829253197
1740578243201588000,56.834587890625,-0.8963608741760254,-0.06614996492862701,0.039009369909763336
1740578243297838000,56.93083813476562,-0.8834407329559326,-0.07654200494289398,0.05498792231082916
1740578243394088000,57.027087890625,-0.8792984485626221,-0.08650645613670349,0.05841108039021492
1740578243586588000,57.219587890625,-0.8955228328704834,-0.07363658398389816,0.07036406546831131
1740578243682838000,57.31583813476563,-0.8947290778160095,-0.060116689652204514,0.08978565782308578
1740578243779088000,57.412087890625,-0.8775362968444824,-0.08799810707569122,0.09543153643608093
1740578243875338000,57.508337890625,-0.8507757186889648,-0.10619040578603745,0.10710592567920685
1740578243971588000,57.60458813476563,-0.8524342179298401,-0.11734355986118317,0.09005783498287201
1740578244067838000,57.700837890625,-0.8735669851303101,-0.10198266804218292,0.07390953600406647
1740578244164088000,57.79708813476562,-0.900477409362793,-0.09666340798139572,0.04875205457210541
1740578244260338000,57.893337890625,-0.916948676109314,-0.0707184374332428,0.0443703718483448
1740578244356588000,57.989588134765626,-0.920366644859314,-0.07110843807458878,0.043742623180150986
1740578244452838000,58.085837890625,-0.8963392972946167,-0.09196239709854126,0.06677864491939545
1740578244645337900,58.278337890625,-0.8784173727035522,-0.07881469279527664,0.08192582428455353
1740578244741588000,58.374587890625,-0.9098588228225708,-0.05525049939751625,0.05140802264213562
1740578244837838000,58.47083813476563,-0.8969843983650208,-0.03982866182923317,0.069996677339077
1740578244934088000,58.567087890625,-0.8851511478424072,-0.06598968803882599,0.07200884819030762
1740578245030338000,58.663338134765624,-0.8710620403289795,-0.09354541450738907,0.07841053605079651
1740578245126588000,58.759587890625,-0.8914674520492554,-0.10033886879682541,0.052200283855199814
1740578245222838000,58.85583813476563,-0.9090891480445862,-0.08035274595022202,0.043275363743305206
1740578245319087900,58.952087890625,-0.9198510646820068,-0.07679370045661926,0.029231568798422813
1740578245415338000,59.048337890625,-0.9118767380714417,-0.09311529994010925,0.03783399611711502
1740578245607838000,59.240837890625,-0.8857734203338623,-0.1112818494439125,0.0786372572183609
1740578245704088000,59.33708813476562,-0.8974968194961548,-0.1034647598862648,0.06708266586065292
1740578245800338000,59.433337890625,-0.880426824092865,-0.08559857308864594,0.09496574103832245
1740578245896588000,59.529588134765625,-0.8822917342185974,-0.09244444221258163,0.0748375728726387
1740578245992838000,59.625837890625,-0.8508944511413574,-0.11745604127645493,0.08945513516664505
1740578246089088000,59.722087890625,-0.8532814383506775,-0.11972974240779877,0.07282750308513641
1740578246185337900,59.818337890625,-0.8641104698181152,-0.11442191153764725,0.05174466595053673
1740578246281588000,59.914587890625,-0.8909707069396973,-0.10437336564064026,0.021635357290506363
1740578246377838000,60.01083813476563,-0.9024725556373596,-0.08206775039434433,0.022349022328853607
1740578246474088000,60.107087890625,-0.8879454731941223,-0.09815756976604462,0.03738727793097496
1740578246570338000,60.20333813476562,-0.8775278329849243,-0.09767062962055206,0.06230061873793602
1740578246666588000,60.299587890625,-0.8837315440177917,-0.0866120383143425,0.06808803230524063
1740578246762838000,60.395838134765626,-0.8981172442436218,-0.0693356916308403,0.057747725397348404
1740578246859088000,60.492087890625,-0.8933930397033691,-0.06870484352111816,0.058496858924627304
1740578246955338000,60.588337890625,-0.8960134983062744,-0.05211537703871727,0.059771955013275146
1740578247051588000,60.684588134765626,-0.8796132802963257,-0.07513520121574402,0.06536553800106049
1740578247147838000,60.780837890625,-0.8679556846618652,-0.09806110709905624,0.06526423245668411
1740578247244088000,60.87708813476563,-0.880895733833313,-0.1112690418958664,0.04453667998313904
1740578247340338000,60.973337890625,-0.8992201685905457,-0.09236188232898712,0.03841090947389603
1740578247436588000,61.069588134765624,-0.9180240631103516,-0.08257989585399628,0.018866203725337982
1740578247532838000,61.165837890625,-0.9207193851470947,-0.08805321156978607,0.017593486234545708
1740578247725337900,61.358337890625,-0.9100472927093506,-0.10546942800283432,0.03815171495079994
1740578247821588000,61.454587890625,-0.916219174861908,-0.08925459533929825,0.04095830023288727
1740578247917838000,61.55083813476563,-0.915226399898529,-0.07945585995912552,0.05072175711393356
1740578248014088000,61.647087890625,-0.924298107624054,-0.06730327010154724,0.03965337947010994
1740578248110338000,61.74333813476562,-0.9274022579193115,-0.08665944635868073,0.02466234192252159
1740578248206588000,61.839587890625,-0.9348207116127014,-0.09221860021352768,0.014786608517169952
1740578248302838000,61.935838134765625,-0.95002281665802,-0.09317079931497574,-0.010426884517073631
1740578248399087900,62.032087890625,-0.9705072641372681,-0.058794524520635605,-0.03485308215022087
1740578248495338000,62.128337890625,-0.9783654808998108,-0.03588547185063362,-0.031350020319223404
1740578248591588000,62.224588134765625,-0.9879353046417236,-0.024748461320996284,-0.046031150966882706
1740578248687838000,62.320837890625,-0.9947028160095215,-0.012870901264250278,-0.059331826865673065
1740578248784088000,62.41708813476563,-0.9977260828018188,-0.0010293344967067242,-0.06305737048387527
1740578248880338000,62.513337890625,0.997730553150177,0.0026568586472421885,0.05882914736866951
1740578248976588000,62.60958813476562,0.9942265152931213,0.00031814471003599465,0.05331487953662872
1740578249072838000,62.705837890625,0.9852229952812195,0.011024930514395237,0.05128693953156471
1740578249169088000,62.802087890625,0.9733979105949402,0.045188698917627335,0.03953760862350464
1740578249265337900,62.898337890625,0.9576514959335327,0.04262568801641464,0.042288199067115784
1740578249361588000,62.994587890625,0.9281471371650696,0.06823509931564331,0.04007796198129654
1740578249457838000,63.090838134765626,0.9033843278884888,0.0773683488368988,0.016957838088274002
1740578249554088000,63.187087890625,0.8516849875450134,0.08597705513238907,0.033074233680963516
1740578249650338000,63.28333813476563,0.7863694429397583,0.07720238715410233,0.059322014451026917
1740578249746588000,63.379587890625,0.7124881148338318,0.06809715926647186,0.08359765261411667
1740578249842838000,63.475838134765624,0.6865978240966797,0.05632873997092247,0.04705784469842911
1740578249939088000,63.572087890625,0.6450234651565552,0.04456253722310066,0.027320843189954758
1740578250035338000,63.668337890625,0.5634607672691345,0.06239878386259079,0.015060899779200554
1740578250131588000,63.764588134765624,0.4471084773540497,0.08622964471578598,0.04934786632657051
1740578250227838000,63.860837890625,0.3852016031742096,0.09919582307338715,0.07354148477315903
1740578250324088000,63.95708813476563,0.4205687642097473,0.078730009496212,0.05965113639831543
1740578250420338000,64.053337890625,0.4187495708465576,0.09527568519115448,0.05053563043475151
1740578250516588000,64.14958813476562,0.39485979080200195,0.1178554967045784,0.05636712536215782
1740578250612838000,64.245837890625,0.35600921511650085,0.1428721845149994,0.11104197055101395
1740578250709088000,64.342087890625,0.45511165261268616,0.12294027954339981,0.11353054642677307
1740578250805337900,64.438337890625,0.5035516619682312,0.11812283843755722,0.11041931062936783
1740578250901588000,64.534587890625,0.5163332223892212,0.12234772741794586,0.09877897799015045
1740578250997838000,64.63083813476563,0.5312488675117493,0.1228574812412262,0.060930050909519196
1740578251094088000,64.727087890625,0.46052566170692444,0.13981229066848755,0.08689333498477936
1740578251190338000,64.82333813476562,0.45410630106925964,0.13633891940116882,0.08223781734704971
1740578251286588000,64.919587890625,0.4386821687221527,0.14189958572387695,0.10412096232175827
1740578251382838000,65.01583813476563,0.4465894103050232,0.1407264620065689,0.10912594944238663
1740578251479087900,65.112087890625,0.461317241191864,0.13981884717941284,0.10113339871168137
1740578251575338000,65.208337890625,0.45407170057296753,0.129892036318779,0.13037419319152832
1740578251671588000,65.30458813476562,0.4515427052974701,0.12338385730981827,0.15268006920814514
1740578251767838000,65.400837890625,0.45636290311813354,0.12422871589660645,0.15199343860149384
1740578251864088000,65.49708813476562,0.4700125455856323,0.1173434630036354,0.15324385464191437
1740578251960338000,65.593337890625,0.4842222034931183,0.11842165887355804,0.13081219792366028
1740578252056588000,65.68958813476563,0.5154170989990234,0.11234944313764572,0.10418951511383057
1740578252152838000,65.785837890625,0.516058623790741,0.10958388447761536,0.1132940724492073
1740578252249088000,65.882087890625,0.5117218494415283,0.11604239046573639,0.10932968556880951
1740578252345337900,65.978337890625,0.5055140852928162,0.1289249211549759,0.08605711907148361
1740578252441588000,66.074587890625,0.5338128805160522,0.1360943466424942,0.0428403839468956
1740578252537838000,66.17083813476563,0.5509673953056335,0.13465628027915955,0.020670268684625626
1740578252634088000,66.267087890625,0.535273015499115,0.13301651179790497,0.050010792911052704
1740578252730338000,66.36333813476563,0.5692485570907593,0.10817287117242813,0.05874549597501755
1740578252826588000,66.459587890625,0.5787325501441956,0.09792648255825043,0.06196874752640724
1740578252922838000,66.55583813476562,0.6045770645141602,0.09214504808187485,0.03302663192152977
1740578253019088000,66.652087890625,0.6583751440048218,0.07526004314422607,-0.0029015797190368176
1740578253115338000,66.748337890625,0.6288735866546631,0.08787912875413895,0.015372063964605331
1740578253211588000,66.84458813476563,0.6243281960487366,0.09944921731948853,0.018214259296655655
1740578253307838000,66.940837890625,0.6106395125389099,0.12062554061412811,0.019071055576205254
1740578253404088000,67.03708813476563,0.6791472434997559,0.11095966398715973,-0.027959251776337624
1740578253500338000,67.133337890625,0.6879319548606873,0.12289401888847351,-0.040754079818725586
1740578253596588000,67.22958813476562,0.6949557662010193,0.12151500582695007,-0.028824226930737495
1740578253692838000,67.325837890625,0.7132658362388611,0.10010616481304169,-0.002362079219892621
1740578253885337900,67.518337890625,0.8173820376396179,0.04088090732693672,-0.0332782045006752
1740578253981588000,67.614587890625,0.8421554565429688,0.02974945679306984,-0.044938717037439346
1740578254077838000,67.71083813476562,0.849441409111023,0.024989677593111992,-0.04055096209049225
1740578254174088000,67.807087890625,0.8646955490112305,0.023772582411766052,-0.041276250034570694
1740578254270338000,67.90333813476562,0.8595074415206909,0.02405952848494053,-0.0193205326795578
1740578254366588000,67.999587890625,0.8612490296363831,0.032049864530563354,-0.0054471599869430065
1740578254462838000,68.09583813476563,0.8514465093612671,0.038766421377658844,0.02376634255051613
1740578254559087900,68.192087890625,0.8851211071014404,0.03298267349600792,0.011598172597587109
1740578254655338000,68.288337890625,0.9072078466415405,0.0459018312394619,-0.000683063524775207
1740578254751588000,68.38458813476562,0.9242904782295227,0.05263376235961914,-0.009539777413010597
1740578254847838000,68.480837890625,0.937559962272644,0.0638480857014656,-0.020512742921710014
1740578254944088000,68.57708813476563,0.946134090423584,0.07233955711126328,-0.02388475090265274
1740578255040338000,68.673337890625,0.9548441171646118,0.07770361006259918,-0.026364313438534737
1740578255136588000,68.76958813476563,0.9631718397140503,0.07947247475385666,-0.028700418770313263
1740578255232838000,68.865837890625,0.9677978754043579,0.0846240222454071,-0.025737810879945755
1740578255329088000,68.962087890625,0.9692911505699158,0.08839195966720581,-0.014736362732946873
1740578255425337900,69.058337890625,0.9691286683082581,0.0922764465212822,-0.002028732094913721
1740578255521588000,69.154587890625,0.9703807234764099,0.10050828009843826,0.004173885565251112
1740578255617838000,69.25083813476563,0.9731683135032654,0.11309736967086792,0.0008992890361696482
1740578255714088000,69.347087890625,0.9767072200775146,0.11600802838802338,-0.0010918262414634228
1740578255810338000,69.44333813476563,0.9798893332481384,0.11660249531269073,-0.00029908891883678734
1740578255906588000,69.539587890625,0.9821786880493164,0.11645270138978958,0.002798824803903699
1740578256002838000,69.63583813476562,0.9845572113990784,0.11998233199119568,-0.0004894544254057109
1740578256099088000,69.732087890625,0.9870321154594421,0.11817914247512817,-0.0017596932593733072
1740578256195338000,69.828337890625,0.9893621206283569,0.12390763312578201,-0.009418289177119732
1740578256291588000,69.92458813476563,0.9924613833427429,0.11801466345787048,-0.03224075585603714
1740578256387838000,70.020837890625,-0.9911987781524658,-0.10916297882795334,0.04823818802833557
1740578256484088000,70.11708813476562,-0.982090175151825,-0.10184799134731293,0.07025601714849472
1740578256580338000,70.213337890625,-0.9698722958564758,-0.10293769836425781,0.07834739238023758
1740578256676588000,70.30958813476562,-0.9582309722900391,-0.09885662794113159,0.08343770354986191
1740578256772838000,70.405837890625,-0.9486545920372009,-0.10258364677429199,0.08236764371395111
1740578256869088000,70.502087890625,-0.9505721926689148,-0.10033457726240158,0.06635314971208572
1740578256965337900,70.598337890625,-0.9533529877662659,-0.08938492834568024,0.05529773235321045
1740578257061588000,70.694587890625,-0.9548733830451965,-0.09966444224119186,0.03340436518192291
1740578257157838000,70.79083813476562,-0.947249710559845,-0.10364449769258499,0.027529709041118622
1740578257254088000,70.887087890625,-0.9386941194534302,-0.11240305751562119,0.01487377192825079
1740578257350338000,70.98333813476563,-0.9240357875823975,-0.12193557620048523,0.012559829279780388
1740578257446588000,71.079587890625,-0.8961086869239807,-0.12220121920108795,0.03149517625570297
1740578257542838000,71.17583813476563,-0.8665056824684143,-0.12640422582626343,0.04478178545832634
1740578257639087900,71.272087890625,-0.8363749980926514,-0.12886662781238556,0.05781984701752663
1740578257735338000,71.368337890625,-0.8087916970252991,-0.1272013634443283,0.07402829825878143
1740578257831588000,71.46458813476562,-0.8005103468894958,-0.11319971084594727,0.08775537461042404
1740578257927838000,71.560837890625,-0.8307619094848633,-0.0776793509721756,0.08626922219991684
1740578258024088000,71.65708813476563,-0.8411813974380493,-0.046464238315820694,0.09336167573928833
1740578258120338000,71.753337890625,-0.8062037825584412,-0.048406992107629776,0.11422532796859741
1740578258216588000,71.84958813476563,-0.7547749280929565,-0.061547644436359406,0.12979526817798615
1740578258312838000,71.945837890625,-0.7340064644813538,-0.05937770754098892,0.12592867016792297
1740578258409088000,72.042087890625,-0.7064015865325928,-0.05848752334713936,0.12849314510822296
1740578258505337900,72.138337890625,-0.7854800224304199,-0.04459746927022934,0.09697382897138596
1740578258601588000,72.234587890625,-0.8235637545585632,-0.03632863610982895,0.09563158452510834
1740578258697838000,72.33083813476563,-0.8591043949127197,-0.025938527658581734,0.08261831849813461
1740578258794088000,72.427087890625,-0.8468877673149109,-0.020418833941221237,0.10480956733226776
1740578258890338000,72.52333813476562,-0.843248188495636,0.0030530139338225126,0.13292795419692993
1740578258986588000,72.619587890625,-0.8522791266441345,0.006415941286832094,0.1318974643945694
1740578259082838000,72.71583813476562,-0.8502964973449707,0.006930857431143522,0.13187140226364136
1740578259179088000,72.812087890625,-0.8438724279403687,0.027690397575497627,0.14072905480861664
1740578259275338000,72.908337890625,-0.8206533193588257,0.0075972601771354675,0.14959578216075897
1740578259371588000,73.00458813476563,-0.7988385558128357,-0.02509250119328499,0.14751972258090973
1740578259467838000,73.100837890625,-0.8282355666160583,-0.038505565375089645,0.11037523299455643
1740578259564088000,73.19708813476562,-0.858548104763031,-0.02894892729818821,0.09114132821559906
1740578259660338000,73.293337890625,-0.8718390464782715,-0.007954457774758339,0.08957768231630325
1740578259756588000,73.38958813476563,-0.8625631332397461,-0.015338527970016003,0.09713796526193619
1740578259852838000,73.485837890625,-0.8598299622535706,-0.03925096616148949,0.0908440575003624
1740578259949088000,73.582087890625,-0.8671379089355469,-0.031974174082279205,0.08892350643873215
1740578260045337900,73.678337890625,-0.8630855083465576,-0.040014710277318954,0.08570990711450577
1740578260141588000,73.774587890625,-0.8494961857795715,-0.04633689299225807,0.0947781652212143
1740578260237838000,73.87083813476562,-0.8359792232513428,-0.057126712054014206,0.10329817235469818
1740578260334088000,73.967087890625,-0.8093135952949524,-0.09618330001831055,0.10983837395906448
1740578260430338000,74.06333813476563,-0.7994842529296875,-0.1289660632610321,0.10049958527088165
1740578260526588000,74.159587890625,-0.8217747211456299,-0.11095980554819107,0.1010155975818634
1740578260622838000,74.25583813476563,-0.8526224493980408,-0.11460322141647339,0.07194606959819794
1740578260719087900,74.352087890625,-0.8537142276763916,-0.09820951521396637,0.09104550629854202
1740578260815338000,74.448337890625,-0.8406825065612793,-0.11842431128025055,0.10441222786903381
1740578261007838000,74.640837890625,-0.834879457950592,-0.11704190820455551,0.13396601378917694
1740578261104088000,74.73708813476563,-0.8561738133430481,-0.09498853236436844,0.12382970005273819
1740578261200338000,74.833337890625,-0.8506470322608948,-0.08036667108535767,0.13066338002681732
1740578261296588000,74.92958813476562,-0.829587459564209,-0.0998372808098793,0.13073961436748505
1740578261392838000,75.025837890625,-0.8150554895401001,-0.12412457168102264,0.12048038840293884
1740578261489088000,75.122087890625,-0.8230708837509155,-0.13150011003017426,0.09959697723388672
1740578261585337900,75.218337890625,-0.8201623558998108,-0.13096734881401062,0.1002965122461319
1740578261681588000,75.314587890625,-0.8598450422286987,-0.1128319650888443,0.0665845274925232
1740578261777838000,75.41083813476563,-0.8797315955162048,-0.09957848489284515,0.049192316830158234
1740578261874088000,75.507087890625,-0.8765746355056763,-0.10953312367200851,0.048860814422369
1740578262066588000,75.699587890625,-0.863959789276123,-0.12218829989433289,0.06639062613248825
1740578262162838000,75.79583813476563,-0.8686466813087463,-0.10486022382974625,0.0760880634188652
1740578262259088000,75.892087890625,-0.8679993748664856,-0.10261271148920059,0.07675041258335114
1740578262355338000,75.988337890625,-0.8524016737937927,-0.10376665741205215,0.09402274340391159
1740578262451588000,76.08458813476562,-0.8253148198127747,-0.13048315048217773,0.1026507019996643
1740578262547838000,76.180837890625,-0.8279024958610535,-0.1393347978591919,0.0909925326704979
1740578262644088000,76.27708813476562,-0.8541104197502136,-0.12319599837064743,0.06770146638154984
1740578262740338000,76.373337890625,-0.8647400736808777,-0.1165822222828865,0.05396116152405739
1740578262836588000,76.46958813476563,-0.8646124005317688,-0.10005614906549454,0.06509517878293991
1740578263029088000,76.662087890625,-0.8603754639625549,-0.09262626618146896,0.08555199950933456
1740578263125337900,76.758337890625,-0.8669490218162537,-0.06912966817617416,0.09000144898891449
1740578263221588000,76.854587890625,-0.858575165271759,-0.05136995017528534,0.11869017779827118
1740578263317838000,76.95083813476562,-0.8394766449928284,-0.05287565290927887,0.14412619173526764
1740578263414088000,77.047087890625,-0.8098868131637573,-0.08929778635501862,0.1542486697435379
1740578263510338000,77.14333813476563,-0.8408370614051819,-0.10272179543972015,0.12133771181106567
1740578263606588000,77.239587890625,-0.8910712599754333,-0.071024589240551,0.08119344711303711
1740578263702838000,77.33583813476562,-0.8819921016693115,-0.057893384248018265,0.09494265913963318
1740578263799087900,77.432087890625,-0.8879424333572388,-0.0449051558971405,0.08869412541389465
1740578263991588000,77.62458813476563,-0.9126415848731995,-0.06835509836673737,0.06845908612012863
1740578264087838000,77.720837890625,-0.9132441878318787,-0.06845907866954803,0.06835510581731796
1740578264184088000,77.81708813476563,-0.9144598245620728,-0.06337302178144455,0.0722867026925087
1740578264280338000,77.913337890625,-0.8899953365325928,-0.057371728122234344,0.1116122230887413
1740578264376588000,78.00958813476562,-0.8800545930862427,-0.07025311887264252,0.11993023008108139
1740578264472838000,78.105837890625,-0.873349130153656,-0.10104742646217346,0.11157508194446564
1740578264569088000,78.202087890625,-0.8790704011917114,-0.12419088929891586,0.08670603483915329
1740578264665337900,78.298337890625,-0.9182894825935364,-0.10378479212522507,0.04645407572388649
1740578264761588000,78.394587890625,-0.9292781352996826,-0.09763781726360321,0.03751781955361366
1740578264857838000,78.49083813476562,-0.9389522671699524,-0.08703675866127014,0.04269513115286827
1740578264954088000,78.587087890625,-0.9241517186164856,-0.08564785867929459,0.08423019200563431
1740578265050338000,78.68333813476562,-0.9188171029090881,-0.049792107194662094,0.11593875288963318
1740578265146588000,78.779587890625,-0.9279196262359619,-0.043189749121665955,0.11094561219215393
1740578265242838000,78.87583813476563,-0.9139042496681213,-0.016618818044662476,0.13719262182712555
1740578265339088000,78.972087890625,-0.8842297196388245,-0.025722110643982887,0.17036879062652588
1740578265435338000,79.068337890625,-0.890981137752533,-0.05898716673254967,0.16155700385570526
1740578265531588000,79.16458813476562,-0.9269536137580872,-0.08495350182056427,0.11411351710557938
1740578265627838000,79.260837890625,-0.9488693475723267,-0.05918743461370468,0.09826977550983429
1740578265724088000,79.35708813476562,-0.9402151703834534,-0.03832542523741722,0.12270138412714005
1740578265820338000,79.453337890625,-0.9300091862678528,-0.04926612600684166,0.14329521358013153
1740578265916588000,79.54958813476563,-0.927931010723114,-0.04427998885512352,0.16381022334098816
1740578266109088000,79.742087890625,-0.9562845230102539,-0.04128945246338844,0.13305145502090454
1740578266205337900,79.838337890625,-0.9372684955596924,-0.04057811573147774,0.16109809279441833
1740578266301588000,79.934587890625,-0.9062678813934326,-0.06369689851999283,0.18586398661136627
1740578266397838000,80.03083813476563,-0.9628744125366211,-0.09098274260759354,0.09857258200645447
1740578266494088000,80.127087890625,-0.9533281922340393,-0.08719055354595184,0.10194224119186401
1740578266590338000,80.22333813476563,-0.9775382876396179,-0.06552179902791977,0.06434885412454605
1740578266686588000,80.319587890625,-0.9781619906425476,-0.05291437357664108,0.07747722417116165
1740578266782838000,80.41583813476562,-0.981381893157959,-0.042214151471853256,0.09045805782079697
1740578266879087900,80.512087890625,-0.9784140586853027,-0.06202179193496704,0.10987651348114014
1740578266975338000,80.608337890625,-0.9705621600151062,-0.0689716562628746,0.13677442073822021
1740578267167838000,80.800837890625,-0.9712386131286621,-0.07271933555603027,0.13515587151050568
1740578267264088000,80.89708813476562,-0.9672064185142517,-0.07711181044578552,0.14648467302322388
1740578267360338000,80.993337890625,-0.9596228003501892,-0.10828351974487305,0.1491490602493286
1740578267456588000,81.08958813476562,-0.9720850586891174,-0.11338796466588974,0.11044474691152573
1740578267552838000,81.185837890625,-0.9873678684234619,-0.08418263494968414,0.06977265328168869
1740578267649088000,81.282087890625,-0.9842877388000488,-0.06314417719841003,0.08988774567842484
1740578267745337900,81.378337890625,-0.9798020124435425,-0.06691769510507584,0.11195670068264008
1740578267841588000,81.474587890625,-0.9669861793518066,-0.0834633857011795,0.14985868334770203
1740578267937838000,81.57083813476562,-0.9707622528076172,-0.06324902176856995,0.15457592904567719
1740578268130338000,81.76333813476562,-0.9683697819709778,-0.04262731224298477,0.14683301746845245
1740578268226588000,81.859587890625,-0.9379415512084961,-0.05991973355412483,0.1874757707118988
1740578268322838000,81.95583813476563,-0.9472050666809082,-0.09967926144599915,0.15324051678180695
1740578268419088000,82.052087890625,-0.9732021689414978,-0.10171691328287125,0.0923837348818779
1740578268515338000,82.148337890625,-0.9815394282341003,-0.06504052877426147,0.07709937542676926
1740578268611588000,82.24458813476562,-0.9732953906059265,-0.06058651581406593,0.10588624328374863
1740578268707838000,82.340837890625,-0.961264967918396,-0.07631717622280121,0.13898059725761414
1740578268804088000,82.43708813476563,-0.974552571773529,-0.09142585843801498,0.11468183249235153
1740578268900338000,82.533337890625,-0.9732879400253296,-0.10583725571632385,0.1185973510146141
1740578268996588000,82.62958813476563,-0.9729250073432922,-0.10557880997657776,0.11882749199867249
1740578269189088000,82.822087890625,-0.9756054282188416,-0.07106032222509384,0.121591717004776
1740578269285337900,82.918337890625,-0.9564017653465271,-0.09679463505744934,0.14782097935676575
1740578269381588000,83.014587890625,-0.9704071283340454,-0.09733995050191879,0.1156206801533699
1740578269477838000,83.11083813476563,-0.9791929721832275,-0.09689809381961823,0.09057973325252533
1740578269574088000,83.207087890625,-0.9844985604286194,-0.07462463527917862,0.08623261004686356
1740578269670338000,83.30333813476562,-0.9872000813484192,-0.060474954545497894,0.09112745523452759
1740578269766588000,83.399587890625,-0.9802501201629639,-0.08952876180410385,0.11677829921245575
1740578269862838000,83.49583813476562,-0.9699110388755798,-0.0951215848326683,0.1496974527835846
1740578269959087900,83.592087890625,-0.9833605885505676,-0.09811943024396896,0.10981224477291107
1740578270151588000,83.78458813476563,-0.9667117595672607,-0.08689531683921814,0.16395749151706696
1740578270247838000,83.880837890625,-0.9597160220146179,-0.12205832451581955,0.1668095737695694
1740578270344088000,83.97708813476562,-0.9817062616348267,-0.12546740472316742,0.10445935279130936
1740578270440338000,84.073337890625,-0.9869754910469055,-0.10367967188358307,0.09174272418022156
1740578270536588000,84.16958813476562,-0.9835558533668518,-0.08968065679073334,0.11142544448375702
1740578270632838000,84.265837890625,-0.9809349775314331,-0.08276977390050888,0.12442897260189056
1740578270729088000,84.362087890625,-0.9751684069633484,-0.10429766029119492,0.13571782410144806
1740578270825337900,84.458337890625,-0.9787301421165466,-0.10021214187145233,0.12688389420509338
1740578270921588000,84.554587890625,-0.986010730266571,-0.08978985249996185,0.09901309013366699
1740578271114088000,84.747087890625,-0.9644498825073242,-0.08609383553266525,0.1444598287343979
1740578271210338000,84.84333813476563,-0.9585817456245422,-0.1334957480430603,0.13100863993167877
1740578271306588000,84.939587890625,-0.971134603023529,-0.14839611947536469,0.0826232060790062
1740578271402838000,85.03583813476563,-0.9603654146194458,-0.14359115064144135,0.09071706235408783
1740578271499088000,85.132087890625,-0.9758191108703613,-0.11005451530218124,0.05459418520331383
1740578271595338000,85.228337890625,-0.9729891419410706,-0.0847325548529625,0.06276746094226837
1740578271691588000,85.32458813476562,-0.9687570333480835,-0.088423952460289,0.07226717472076416
1740578271787838000,85.420837890625,-0.9715651869773865,-0.1136099174618721,0.054475754499435425
1740578271884088000,85.51708813476563,-0.9615419507026672,-0.11813373118638992,0.0714101642370224
1740578271980338000,85.613337890625,-0.9640334248542786,-0.11195506900548935,0.06181662157177925
1740578272076588000,85.70958813476562,-0.9518157839775085,-0.10338442772626877,0.08814411610364914
1740578272172838000,85.805837890625,-0.947760820388794,-0.11628914624452591,0.08253565430641174
1740578272269088000,85.902087890625,-0.9536325335502625,-0.13266484439373016,0.05477919802069664
1740578272365337900,85.998337890625,-0.9612759351730347,-0.1253119260072708,0.03421086445450783
1740578272461588000,86.094587890625,-0.9717007875442505,-0.08756483346223831,0.027232643216848373
1740578272557838000,86.19083813476563,-0.9753636121749878,-0.067955881357193,0.0322403721511364
1740578272654088000,86.287087890625,-0.9677826762199402,-0.08662854880094528,0.05431544780731201
1740578272750338000,86.38333813476562,-0.9720142483711243,-0.09646952152252197,0.04989509657025337
1740578272846588000,86.479587890625,-0.9631221294403076,-0.10979287326335907,0.06590446829795837
1740578272942838000,86.57583813476562,-0.9674020409584045,-0.09096653014421463,0.05852627381682396
1740578273039087900,86.672087890625,-0.9693126082420349,-0.05889835208654404,0.05012017488479614
1740578273231588000,86.86458813476563,-0.963808536529541,-0.11989651620388031,0.01653462089598179
1740578273327838000,86.960837890625,-0.9621654748916626,-0.1323588490486145,0.006181854754686356
1740578273424088000,87.05708813476562,-0.9738689661026001,-0.11422067135572433,-0.02554510347545147
1740578273520338000,87.153337890625,-0.9769771695137024,-0.08208134025335312,-0.02107897959649563
1740578273616588000,87.24958813476563,-0.9703254699707031,-0.09199289977550507,-0.0015685390681028366
1740578273712838000,87.345837890625,-0.9674120545387268,-0.1132693886756897,0.005068921484053135
1740578273809088000,87.442087890625,-0.9639296531677246,-0.1303853541612625,0.021016811951994896
1740578273905337900,87.538337890625,-0.9679900407791138,-0.13074752688407898,0.018631482496857643
1740578274001588000,87.634587890625,-0.9704626202583313,-0.10937418043613434,0.02749992348253727
1740578274097838000,87.73083813476562,-0.9631678462028503,-0.09165648370981216,0.05432114377617836
1740578274290338000,87.92333813476563,-0.9669126272201538,-0.12386181205511093,0.027110576629638672
1740578274386588000,88.019587890625,-0.9695413112640381,-0.12283515930175781,0.01911137066781521
1740578274482838000,88.11583813476562,-0.9767634272575378,-0.09768348932266235,0.011105972342193127
1740578274579088000,88.212087890625,-0.9746979475021362,-0.08016105741262436,0.02252737060189247
1740578274675338000,88.308337890625,-0.9794517159461975,-0.09165670722723007,0.007336257491260767
1740578274771588000,88.40458813476563,-0.9778314232826233,-0.09721086919307709,0.018120266497135162
1740578274867838000,88.500837890625,-0.9719390869140625,-0.08583223074674606,0.03772836551070213
1740578274964088000,88.59708813476563,-0.974337100982666,-0.06645728647708893,0.04046441987156868
1740578275060338000,88.693337890625,-0.957790732383728,-0.05684629827737808,0.08040875196456909
1740578275252838000,88.885837890625,-0.9584081768989563,-0.09886728227138519,0.05510419234633446
1740578275349088000,88.982087890625,-0.9606656432151794,-0.09539606422185898,0.045399848371744156
1740578275445337900,89.078337890625,-0.9691113829612732,-0.08147602528333664,0.03470715880393982
1740578275541588000,89.174587890625,-0.9710970520973206,-0.06478658318519592,0.0390312597155571
1740578275637838000,89.27083813476563,-0.9676264524459839,-0.08299257606267929,0.04668525233864784
1740578275734088000,89.367087890625,-0.9621406197547913,-0.07034999877214432,0.07625113427639008
1740578275830338000,89.46333813476562,-0.9611327648162842,-0.06565801799297333,0.08121995627880096
1740578275926588000,89.559587890625,-0.9579021334648132,-0.052503518760204315,0.08314758539199829
1740578276022838000,89.65583813476563,-0.9455648064613342,-0.04090093448758125,0.08907055109739304
1740578276119087900,89.752087890625,-0.9446116089820862,-0.06235089153051376,0.07982207089662552
1740578276215338000,89.848337890625,-0.9482646584510803,-0.06387706100940704,0.0866900384426117
1740578276311588000,89.94458813476562,-0.9484882354736328,-0.06394201517105103,0.08664213865995407
1740578276407838000,90.040837890625,-0.9622079730033875,-0.05416562035679817,0.07492762058973312
1740578276504088000,90.13708813476562,-0.9605366587638855,-0.03944585472345352,0.08673557639122009
1740578276600338000,90.233337890625,-0.9734519720077515,-0.0401795357465744,0.08198569715023041
1740578276696588000,90.32958813476563,-0.9560457468032837,-0.03449912741780281,0.1406421661376953
1740578276792838000,90.425837890625,-0.9573451280593872,-0.013825836591422558,0.15460973978042603
1740578276889088000,90.522087890625,-0.9588024616241455,-0.016774015501141548,0.1487797498703003
1740578276985337900,90.618337890625,-0.9366446733474731,0.013657624833285809,0.16793499886989594
1740578277081588000,90.714587890625,-0.9178580641746521,0.0008291252888739109,0.18105584383010864
1740578277177838000,90.81083813476563,-0.9380630850791931,-0.024377044290304184,0.1565162092447281
1740578277274088000,90.907087890625,-0.9449527263641357,-0.031744033098220825,0.1521194875240326
1740578277370338000,91.00333813476563,-0.9445674419403076,-0.022726036608219147,0.16266092658042908
1740578277466588000,91.099587890625,-0.937796413898468,-0.006681954488158226,0.18051408231258392
1740578277562838000,91.19583813476562,-0.9425938129425049,-0.023492859676480293,0.1907445639371872
1740578277659088000,91.292087890625,-0.9417622089385986,-0.0464015007019043,0.23114833235740662
1740578277755338000,91.388337890625,-0.9142060875892639,-0.08294057846069336,0.2890585958957672
1740578277851588000,91.48458813476563,-0.8908749222755432,-0.07605724781751633,0.33076047897338867
1740578277947838000,91.580837890625,-0.8867899179458618,-0.062279362231492996,0.3476705551147461
1740578278044088000,91.67708813476563,-0.8428094387054443,-0.06915675848722458,0.38974618911743164
1740578278140338000,91.773337890625,-0.8585430979728699,-0.0966082513332367,0.3682442009449005
1740578278332838000,91.965837890625,-0.9093856811523438,-0.08844100683927536,0.30763787031173706
1740578278429088000,92.062087890625,-0.9145742654800415,-0.07299316674470901,0.3057880699634552
1740578278525337900,92.158337890625,-0.8807485699653625,-0.07552877813577652,0.35078343749046326
1740578278621588000,92.254587890625,-0.8637489676475525,-0.07343088090419769,0.3788919150829315
1740578278717838000,92.35083813476562,-0.9016433358192444,-0.09363707154989243,0.3270120322704315
1740578278814088000,92.447087890625,-0.8892894983291626,-0.07945088297128677,0.3307451009750366
1740578278910338000,92.54333813476562,-0.8831995725631714,-0.06255349516868591,0.32233351469039917
1740578279006588000,92.639587890625,-0.885530948638916,-0.06652365624904633,0.30856841802597046
1740578279102838000,92.73583813476563,-0.8377244472503662,-0.07716383785009384,0.32818979024887085
1740578279199087900,92.832087890625,-0.8844492435455322,-0.09566377103328705,0.26073163747787476
1740578279295338000,92.928337890625,-0.9218171238899231,-0.08109650015830994,0.20730747282505035
1740578279391588000,93.02458813476562,-0.9091728925704956,-0.057521671056747437,0.20826266705989838
1740578279487838000,93.120837890625,-0.9048976898193359,-0.0514652281999588,0.19980579614639282
1740578279584088000,93.21708813476563,-0.8992833495140076,-0.08957062661647797,0.18136994540691376
1740578279680338000,93.313337890625,-0.9149002432823181,-0.0905044674873352,0.156834676861763
1740578279776588000,93.40958813476563,-0.9308319687843323,-0.09679176658391953,0.12501095235347748
1740578279872838000,93.505837890625,-0.9308100342750549,-0.10104919970035553,0.13237732648849487
1740578279969088000,93.602087890625,-0.9227647185325623,-0.1338612586259842,0.14830635488033295
1740578280065337900,93.698337890625,-0.9092134237289429,-0.19896982610225677,0.1504114866256714
1740578280161588000,93.794587890625,-0.8695030808448792,-0.2788161337375641,0.17247186601161957
1740578280257838000,93.89083813476563,-0.8712295293807983,-0.31315773725509644,0.15593524277210236
1740578280450338000,94.08333813476563,-0.8915979862213135,-0.2886514961719513,0.18768158555030823
1740578280546588000,94.179587890625,-0.8861852288246155,-0.3307695984840393,0.18330436944961548
1740578280642838000,94.27583813476562,-0.8351786732673645,-0.3409309685230255,0.2871694564819336
1740578280739088000,94.372087890625,-0.8649500012397766,-0.32547348737716675,0.2642800211906433
1740578280835338000,94.468337890625,-0.8648925423622131,-0.3045433461666107,0.2861643433570862
1740578280931588000,94.56458813476563,-0.8694491386413574,-0.3130233585834503,0.2635286748409271
1740578281027838000,94.660837890625,-0.8804848790168762,-0.3580729365348816,0.17859211564064026
1740578281124088000,94.75708813476562,-0.8800575733184814,-0.3671135902404785,0.1571541130542755
1740578281220338000,94.853337890625,-0.8743833303451538,-0.3636821210384369,0.16493971645832062
1740578281316588000,94.94958813476562,-0.8866041898727417,-0.36372658610343933,0.12865839898586273
1740578281412838000,95.045837890625,-0.9011553525924683,-0.3453103005886078,0.10642177611589432
1740578281509088000,95.142087890625,-0.9006531834602356,-0.32835012674331665,0.12248320877552032
1740578281605337900,95.238337890625,-0.8862463235855103,-0.33366841077804565,0.14310529828071594
1740578281701588000,95.334587890625,-0.8795627951622009,-0.32912614941596985,0.14972321689128876
1740578281797838000,95.43083813476562,-0.9043535590171814,-0.32345202565193176,0.08265738189220428
1740578281894088000,95.527087890625,-0.8849387168884277,-0.315162718296051,0.13340327143669128
1740578281990338000,95.62333813476563,-0.872202455997467,-0.3162355124950409,0.1369161307811737
1740578282086588000,95.719587890625,-0.882008969783783,-0.3473571240901947,0.06100133806467056
1740578282182838000,95.81583813476563,-0.8622463941574097,-0.3516990542411804,0.09153970330953598
1740578282279087900,95.912087890625,-0.8747526407241821,-0.3345591723918915,0.07391119748353958
1740578282375338000,96.008337890625,-0.8928593993186951,-0.3123930096626282,0.0465376079082489
1740578282471588000,96.10458813476562,-0.8995392322540283,-0.26427119970321655,0.07200150191783905
1740578282567838000,96.200837890625,-0.8725394606590271,-0.27261173725128174,0.10033651441335678
1740578282664088000,96.29708813476563,-0.8739383220672607,-0.22584035992622375,0.12456592917442322
1740578282760338000,96.393337890625,-0.8981488943099976,-0.20188455283641815,0.07312800735235214
1740578282856588000,96.48958813476563,-0.878343403339386,-0.180367112159729,0.09923788160085678
1740578282952838000,96.585837890625,-0.8762295246124268,-0.15989463031291962,0.0797019824385643
1740578283049088000,96.682087890625,-0.8589896559715271,-0.18044009804725647,0.06195845082402229
1740578283145337900,96.778337890625,-0.8682126402854919,-0.169244185090065,0.036669109016656876
1740578283241588000,96.874587890625,-0.8854407072067261,-0.13509157299995422,0.022551581263542175
1740578283337838000,96.97083813476563,-0.900262176990509,-0.11330559104681015,0.01577431708574295
1740578283434088000,97.067087890625,-0.9195307493209839,-0.11646050959825516,0.005195548292249441
1740578283530338000,97.16333813476562,-0.8652419447898865,-0.1442383974790573,0.10819508135318756
1740578283626588000,97.259587890625,-0.8783299326896667,-0.13941766321659088,0.10746734589338303
1740578283722838000,97.35583813476562,-0.8754296898841858,-0.13871794939041138,0.10836903005838394
1740578283819088000,97.452087890625,-0.9069552421569824,-0.10241378843784332,0.08626754581928253
1740578283915338000,97.548337890625,-0.8981771469116211,-0.08290980011224747,0.10067907720804214
1740578284011588000,97.64458813476563,-0.8824069499969482,-0.08998135477304459,0.10250799357891083
1740578284107838000,97.740837890625,-0.8747695088386536,-0.1116812527179718,0.08523742109537125
1740578284204088000,97.83708813476562,-0.8751513957977295,-0.11412820219993591,0.06455306708812714
1740578284300338000,97.933337890625,-0.898531973361969,-0.08491269499063492,0.03980923816561699
1740578284396588000,98.02958813476563,-0.9208421111106873,-0.0707084983587265,0.009544983506202698
1740578284492838000,98.125837890625,-0.9244409799575806,-0.06571464985609055,0.006045829504728317
1740578284685337900,98.318337890625,-0.9016884565353394,-0.09297433495521545,0.03884212300181389
1740578284781588000,98.414587890625,-0.9024027585983276,-0.07716959714889526,0.039216089993715286
1740578284877838000,98.51083813476562,-0.8971697092056274,-0.06888887286186218,0.04405093193054199
1740578284974088000,98.607087890625,-0.8926045298576355,-0.06110340356826782,0.04579721391201019
1740578285070338000,98.70333813476563,-0.8702603578567505,-0.08727222681045532,0.05313868075609207
1740578285166588000,98.799587890625,-0.8664072155952454,-0.10149817913770676,0.04126184061169624
1740578285262838000,98.89583813476563,-0.8810713291168213,-0.0800745040178299,0.027936125174164772
1740578285359087900,98.992087890625,-0.907063901424408,-0.06366150081157684,-0.0009352478082291782
1740578285455338000,99.088337890625,-0.9162789583206177,-0.048591356724500656,-0.003858986310660839
1740578285647838000,99.280837890625,-0.8952218294143677,-0.09422141313552856,0.025842273607850075
1740578285744088000,99.37708813476563,-0.901290237903595,-0.09392771869897842,0.0269389096647501
1740578285840338000,99.473337890625,-0.9061946272850037,-0.07350555807352066,0.03818714618682861
1740578285936588000,99.56958813476562,-0.9066897034645081,-0.06007061526179314,0.04808243364095688
1740578286032838000,99.665837890625,-0.8907926082611084,-0.08749794960021973,0.054859962314367294
1740578286129088000,99.762087890625,-0.8899243474006653,-0.08739035576581955,0.055031195282936096
1740578286225337900,99.858337890625,-0.8757124543190002,-0.11245257407426834,0.057862360030412674
1740578286321588000,99.954587890625,-0.887508749961853,-0.11610104143619537,0.03833431750535965
1740578286417838000,100.05083813476563,-0.9195412993431091,-0.09847719967365265,0.007145705167204142
1740578286514088000,100.147087890625,-0.9468926191329956,-0.08282509446144104,-0.016737226396799088
1740578286706588000,100.339587890625,-0.9289247393608093,-0.1099415272474289,0.042039867490530014
1740578286802838000,100.43583813476563,-0.9044472575187683,-0.08226492255926132,0.082563117146492
1740578286899088000,100.532087890625,-0.9243784546852112,-0.04104893282055855,0.06093497574329376
1740578286995338000,100.628337890625,-0.9168820977210999,-0.01700187474489212,0.07475533336400986
1740578287091588000,100.72458813476563,-0.9145287871360779,-0.017803460359573364,0.06533686816692352
1740578287187838000,100.820837890625,-0.932671308517456,-0.057221077382564545,0.03474133834242821
1740578287284088000,100.91708813476562,-0.9531557559967041,-0.0727420449256897,0.05608798936009407
1740578287380338000,101.013337890625,-0.9416415095329285,-0.06779360771179199,0.15390054881572723
1740578287476588000,101.10958813476563,-0.9609212875366211,-0.08179730921983719,0.18533183634281158
1740578287669088000,101.302087890625,-0.9480262398719788,-0.14040252566337585,0.2756323516368866
1740578287765337900,101.398337890625,-0.9106918573379517,-0.1586320698261261,0.36193227767944336
1740578287861588000,101.494587890625,-0.9094070792198181,-0.18448184430599213,0.362072229385376
1740578287957838000,101.59083813476562,-0.9137752652168274,-0.17587687075138092,0.3634577989578247
1740578288054088000,101.687087890625,-0.9015177488327026,-0.17020712792873383,0.39506253600120544
1740578288150338000,101.78333813476563,-0.8985120058059692,-0.21137133240699768,0.38443201780319214
1740578288246588000,101.879587890625,-0.8824882507324219,-0.26125964522361755,0.39109835028648376
1740578288342838000,101.97583813476562,-0.8572651743888855,-0.2840023934841156,0.4294506907463074
1740578288439087900,102.072087890625,0.8495794534683228,0.3280567526817322,-0.40915384888648987
1740578288535338000,102.168337890625,0.8445454835891724,0.34200137853622437,-0.3974813222885132
1740578288631588000,102.26458813476563,0.8391188383102417,0.3587164282798767,-0.3824642300605774
1740578288727838000,102.360837890625,0.8340969085693359,0.3832344710826874,-0.352334588766098
1740578288824088000,102.45708813476563,0.8227505683898926,0.40978190302848816,-0.32839927077293396
1740578288920338000,102.553337890625,0.8128715753555298,0.41239580512046814,-0.35335883498191833
1740578289016588000,102.64958813476562,0.8159752488136292,0.39527273178100586,-0.3630009889602661
1740578289112838000,102.745837890625,0.8098243474960327,0.3651615381240845,-0.42745184898376465
1740578289209088000,102.842087890625,0.8028489351272583,0.39789995551109314,-0.41403868794441223
1740578289305337900,102.938337890625,0.7914735674858093,0.4420282244682312,-0.39511996507644653
1740578289401588000,103.034587890625,0.8070946931838989,0.4204794764518738,-0.3879317343235016
1740578289497838000,103.13083813476563,0.8127140998840332,0.40130993723869324,-0.40256351232528687
1740578289594088000,103.227087890625,0.8211113214492798,0.35527077317237854,-0.4349690079689026
1740578289786588000,103.419587890625,0.7993760704994202,0.37188541889190674,-0.47001469135284424
1740578289882838000,103.51583813476563,0.8161850571632385,0.33599764108657837,-0.46876221895217896
1740578289979088000,103.612087890625,0.8460100293159485,0.2929191589355469,-0.4425375163555145
1740578290075338000,103.708337890625,-0.8281871676445007,-0.2510078549385071,0.5004578828811646
1740578290171588000,103.80458813476562,-0.7921327352523804,-0.23436518013477325,0.5505688190460205
1740578290267838000,103.900837890625,-0.8056008219718933,-0.25990617275238037,0.5179511904716492
1740578290364088000,103.99708813476562,-0.8361709713935852,-0.26003924012184143,0.4729394316673279
1740578290460338000,104.093337890625,-0.8344948887825012,-0.21804039180278778,0.4927593469619751
1740578290556588000,104.18958813476563,-0.8334397673606873,-0.18027760088443756,0.5074145197868347
1740578290652838000,104.285837890625,-0.8359800577163696,-0.18316851556301117,0.5014714002609253
1740578290749088000,104.382087890625,-0.7973229289054871,-0.17052122950553894,0.5483717918395996
1740578290845337900,104.478337890625,-0.7883807420730591,-0.16503369808197021,0.5585739612579346
1740578290941588000,104.574587890625,-0.834354043006897,-0.17312729358673096,0.5055877566337585
1740578291037838000,104.67083813476563,-0.8348548412322998,-0.17502166330814362,0.504935085773468
1740578291134088000,104.767087890625,-0.7997021079063416,-0.1416091024875641,0.554867684841156
1740578291230338000,104.86333813476563,-0.7549635767936707,-0.1336880624294281,0.5929107069969177
1740578291326588000,104.959587890625,-0.7489798665046692,-0.15452639758586884,0.5795450210571289
1740578291422838000,105.05583813476562,-0.816687285900116,-0.20735865831375122,0.5060243010520935
1740578291519087900,105.152087890625,-0.7848320007324219,-0.16560059785842896,0.5541062951087952
1740578291615338000,105.248337890625,-0.8106134533882141,-0.1812353879213333,0.5278054475784302
1740578291807838000,105.440837890625,-0.7501041889190674,-0.16530460119247437,0.5922656059265137
1740578291904088000,105.53708813476563,-0.7835243344306946,-0.17803868651390076,0.5608638525009155
1740578292000338000,105.633337890625,-0.8107200264930725,-0.18384845554828644,0.5371631979942322
1740578292096588000,105.72958813476562,-0.7809895277023315,-0.1576220691204071,0.5783593058586121
1740578292192838000,105.825837890625,-0.7444043159484863,-0.16047132015228271,0.6098232865333557
1740578292289088000,105.922087890625,-0.7160562872886658,-0.1573021113872528,0.6277257204055786
1740578292385337900,106.018337890625,-0.7847198247909546,-0.20112015306949615,0.5608462691307068
1740578292481588000,106.114587890625,-0.7592777609825134,-0.16114790737628937,0.5958192348480225
1740578292577838000,106.21083813476562,-0.793381929397583,-0.16447119414806366,0.5624846816062927
1740578292770338000,106.40333813476562,-0.7560620307922363,-0.15701089799404144,0.5923137068748474
1740578292866588000,106.499587890625,-0.799217700958252,-0.17715494334697723,0.5470842719078064
1740578292962838000,106.59583813476563,-0.8230201005935669,-0.1665399819612503,0.522998034954071
1740578293059088000,106.692087890625,-0.8053253889083862,-0.13863623142242432,0.5463647842407227
1740578293155338000,106.788337890625,-0.7139256000518799,-0.08926434814929962,0.6198676824569702
1740578293251588000,106.88458813476562,-0.7255277633666992,-0.11885970830917358,0.6089168787002563
1740578293347838000,106.980837890625,-0.7949186563491821,-0.16800285875797272,0.5474584698677063
1740578293444088000,107.07708813476563,-0.8108783960342407,-0.16361451148986816,0.5337376594543457
1740578293540338000,107.173337890625,-0.8115994930267334,-0.16582614183425903,0.5330546498298645
1740578293636588000,107.26958813476563,-0.7926509976387024,-0.1602342128753662,0.5570286512374878
1740578293829088000,107.462087890625,-0.7422311902046204,-0.11057407408952713,0.611766517162323
1740578293925337900,107.558337890625,-0.7930024862289429,-0.1399645209312439,0.5630718469619751
1740578294021588000,107.654587890625,-0.7888715863227844,-0.12045484781265259,0.5725248456001282
1740578294117838000,107.75083813476563,-0.742511510848999,-0.10249307751655579,0.6094631552696228
1740578294214088000,107.847087890625,-0.586305558681488,0.03516179323196411,0.6806564331054688
1740578294310338000,107.94333813476563,-0.8233446478843689,-0.15524296462535858,0.49279987812042236
1740578294406588000,108.039587890625,-0.8056468963623047,-0.09784658998250961,0.5167825818061829
1740578294502838000,108.13583813476562,-0.8452402949333191,-0.08251459151506424,0.4849800169467926
1740578294599087900,108.232087890625,-0.848840057849884,-0.09235886484384537,0.4831019639968872
1740578294695338000,108.328337890625,-0.7818605303764343,-0.06952397525310516,0.5534769296646118
1740578294791588000,108.42458813476563,-0.7624261379241943,-0.054508600383996964,0.5662426948547363
1740578294887838000,108.520837890625,-0.8301629424095154,-0.09791345149278641,0.503918468952179
1740578294984087000,108.61708715820312,-0.8094760775566101,-0.0703471302986145,0.5261887311935425
1740578295080337200,108.71333715820313,-0.7650637626647949,-0.06079526245594025,0.5624892115592957
1740578295176587000,108.8095869140625,-0.7321188449859619,-0.06016716733574867,0.5870104432106018
1740578295272837000,108.90583715820313,-0.7906879782676697,-0.12441384792327881,0.5313344597816467
1740578295369087200,109.00208715820312,-0.7702845335006714,-0.10675439983606339,0.554277241230011
1740578295465337000,109.09833715820312,-0.7964398264884949,-0.1117362380027771,0.5424275398254395
1740578295561587200,109.19458715820312,-0.7515861392021179,-0.09186457097530365,0.5910908579826355
1740578295657837000,109.29083715820312,-0.7238070368766785,-0.05341358855366707,0.6316254138946533
1740578295850337000,109.4833369140625,-0.7777872681617737,-0.07018657773733139,0.593209445476532
1740578295946587100,109.57958715820313,-0.7912379503250122,-0.11876490712165833,0.585421621799469
1740578296042837000,109.6758369140625,-0.7546477317810059,-0.09768856316804886,0.6355144381523132
1740578296139087000,109.77208715820312,-0.6928754448890686,0.0260279793292284,0.7006497979164124
1740578296235337200,109.86833715820312,-0.641952395439148,0.23206105828285217,0.7234493494033813
1740578296331587000,109.96458715820313,0.7578803896903992,-0.08852768689393997,-0.645609974861145
1740578296427837200,110.06083715820313,0.7756901383399963,-0.030192328616976738,-0.6252103447914124
1740578296524087000,110.15708715820313,-0.7571911215782166,0.09716890752315521,0.6458480358123779
1740578296620337200,110.25333715820312,-0.6882166266441345,0.2488531470298767,0.6765322089195251
1740578296716587000,110.3495869140625,0.6601953506469727,-0.31096896529197693,-0.6836838722229004
1740578296812837000,110.44583715820312,0.7196459770202637,-0.20841296017169952,-0.6428301334381104
1740578296909087200,110.54208715820313,0.7155320644378662,-0.23249593377113342,-0.6540170311927795
1740578297005337000,110.63833715820313,-0.6519690752029419,0.399021178483963,0.6264604926109314
1740578297101587200,110.73458715820313,-0.6376670002937317,0.43661487102508545,0.6129207611083984
1740578297197837000,110.83083715820312,-0.6764518022537231,0.39779940247535706,0.6107668876647949
1740578297294087200,110.92708715820312,-0.6829786896705627,0.4022417962551117,0.5921797156333923
1740578297390337000,111.0233369140625,-0.6965734362602234,0.36518386006355286,0.603277325630188
1740578297486587100,111.11958715820313,-0.7093498706817627,0.2789047360420227,0.6464155912399292
1740578297582837000,111.2158369140625,0.6683101654052734,-0.3079172670841217,-0.6765965819358826
1740578297679087000,111.31208715820313,0.6611211895942688,-0.2964061498641968,-0.6756848096847534
1740578297871587000,111.50458715820312,0.6752338409423828,-0.2334117740392685,-0.6991755366325378
1740578297967837200,111.60083715820312,-0.6528340578079224,0.26922929286956787,0.7030290961265564
1740578298064087000,111.69708715820312,-0.6160176992416382,0.30969494581222534,0.7167745232582092
1740578298160337200,111.79333715820313,-0.6141334176063538,0.28959178924560547,0.7208825945854187
1740578298256587000,111.8895869140625,-0.5603463649749756,0.34556981921195984,0.7244936227798462
1740578298352837000,111.98583715820313,-0.6088128089904785,0.24555060267448425,0.7460919618606567
1740578298449087200,112.08208715820312,-0.6134157776832581,0.20982417464256287,0.7569162249565125
1740578298545337000,112.17833715820312,-0.6256341934204102,0.1535646915435791,0.7641984820365906
1740578298641587200,112.27458715820312,-0.6216608881950378,0.12512634694576263,0.7728493213653564
1740578298737837000,112.37083715820313,-0.6055126190185547,0.18912246823310852,0.7729775309562683
1740578298834087200,112.46708715820313,0.6499658226966858,-0.16813960671424866,-0.7381030917167664
1740578298930337000,112.5633369140625,-0.6307833194732666,0.2688532769680023,0.7243955135345459
1740578299026587100,112.65958715820312,-0.5412551760673523,0.4448176622390747,0.6640298962593079
1740578299122837000,112.7558369140625,-0.54881352186203,0.48151373863220215,0.6302952170372009
1740578299219087000,112.85208715820312,-0.6295969486236572,0.43385598063468933,0.6117058396339417
1740578299315337200,112.94833715820313,-0.6339298486709595,0.45280665159225464,0.5846813917160034
1740578299411587000,113.04458715820313,-0.661137044429779,0.40669143199920654,0.5974500775337219
1740578299507837200,113.14083715820313,-0.6430503129959106,0.39289751648902893,0.6378921270370483
1740578299604087000,113.23708715820312,0.6524428725242615,-0.3355278968811035,-0.6794562339782715
1740578299700337200,113.33333715820312,0.6703265905380249,-0.2916754484176636,-0.6699907779693604
1740578299796587000,113.4295869140625,0.7041639089584351,-0.21875832974910736,-0.6550664901733398
1740578299892837000,113.52583715820313,-0.6774558424949646,0.3260875940322876,0.6581661701202393
1740578299989087200,113.62208715820313,-0.5866917967796326,0.4921516180038452,0.593181312084198
1740578300085337000,113.71833715820313,-0.6080502867698669,0.4996092915534973,0.5685752034187317
1740578300181587200,113.81458715820312,-0.6750651001930237,0.4490835666656494,0.543159544467926
1740578300277837000,113.91083715820312,-0.6813763380050659,0.45502227544784546,0.5200956463813782
1740578300374087200,114.00708715820312,-0.7083783149719238,0.37356504797935486,0.5888439416885376
1740578300470337000,114.1033369140625,-0.6929663419723511,0.3316442370414734,0.640128493309021
1740578300566587100,114.19958715820313,0.6735867261886597,-0.30132734775543213,-0.6638364791870117
1740578300662837000,114.2958369140625,0.6827395558357239,-0.2568448483943939,-0.6572754383087158
1740578300759087000,114.39208715820313,0.7135003805160522,-0.178608700633049,-0.6523752212524414
1740578300855337200,114.48833715820312,0.6776977777481079,-0.25620728731155396,-0.6891090869903564
1740578300951587000,114.58458715820312,-0.6772069334983826,0.30056169629096985,0.6709517240524292
1740578301047837200,114.68083715820312,-0.6222718358039856,0.419306218624115,0.6318318247795105
1740578301144087000,114.77708715820313,-0.6359708309173584,0.4527074694633484,0.5901007652282715
1740578301240337200,114.87333715820313,-0.647038459777832,0.46621328592300415,0.5379951000213623
1740578301336587000,114.9695869140625,-0.7181254625320435,0.3230266571044922,0.610608696937561
1740578301432837000,115.06583715820312,0.7161034345626831,-0.2448032796382904,-0.6516557335853577
1740578301529087200,115.16208715820312,0.6792628765106201,-0.26833996176719666,-0.6767035126686096
1740578301625337000,115.25833715820312,0.6370195150375366,-0.3300006091594696,-0.6759125590324402
1740578301721587200,115.35458715820313,0.6594905853271484,-0.3003481328487396,-0.6723034977912903
1740578301817837000,115.45083715820313,0.7320951223373413,-0.1826537400484085,-0.6430476307868958
1740578301914087200,115.54708715820313,-0.7063351273536682,0.2298995554447174,0.6694697737693787
1740578302010337000,115.6433369140625,-0.6239067316055298,0.3844055235385895,0.6520242094993591
1740578302106587100,115.73958715820312,-0.6558176875114441,0.39772850275039673,0.6181994080543518
1740578302202837000,115.8358369140625,-0.6935861110687256,0.3848229646682739,0.5880452990531921
1740578302299087000,115.93208715820313,-0.7195389270782471,0.33029574155807495,0.6037379503250122
1740578302395337200,116.02833715820313,-0.6847614645957947,0.35748669505119324,0.6310977935791016
1740578302491587000,116.12458715820313,0.6576151847839355,-0.3302805721759796,-0.6759078502655029
1740578302587837200,116.22083715820312,0.6525951623916626,-0.2893644869327545,-0.6881455183029175
1740578302684087000,116.31708715820312,0.6887190937995911,-0.1869659423828125,-0.6881848573684692
1740578302780337200,116.41333715820312,0.6864632964134216,-0.17867687344551086,-0.7037475109100342
1740578302972837000,116.60583715820313,-0.5030182600021362,0.4163267910480499,0.6993650197982788
1740578303069087200,116.70208715820313,-0.6215226054191589,0.3052433729171753,0.7019583582878113
1740578303165337000,116.79833715820313,-0.7022228240966797,0.204055517911911,0.6820372939109802
1740578303261587200,116.89458715820312,-0.677022397518158,0.2597910165786743,0.6811487078666687
1740578303357837000,116.99083715820312,-0.6767625212669373,0.2615293562412262,0.6804831624031067
1740578303454087200,117.08708715820312,-0.6114077568054199,0.35021543502807617,0.6902147531509399
1740578303550337000,117.1833369140625,-0.6281723976135254,0.3268107771873474,0.7050819396972656
1740578303646587100,117.27958715820313,0.6579761505126953,-0.29616591334342957,-0.6878003478050232
1740578303742837000,117.3758369140625,0.7041509747505188,-0.2044268101453781,-0.6600667834281921
1740578303839087000,117.47208715820312,-0.6758411526679993,0.36536160111427307,0.6349536776542664
1740578304031587000,117.66458715820312,-0.6379114985466003,0.5044432878494263,0.5162284970283508
1740578304127837200,117.76083715820313,-0.6242707371711731,0.527502179145813,0.5246049165725708
1740578304224087000,117.85708715820313,0.7193785905838013,-0.3125901520252228,-0.6202923655509949
1740578304320337200,117.95333715820313,0.7001239657402039,-0.3012501299381256,-0.6468835473060608
1740578304416587000,118.0495869140625,0.6684571504592896,-0.29004788398742676,-0.6777464747428894
1740578304512837000,118.14583715820312,0.6577150225639343,-0.27797776460647583,-0.6712037920951843
1740578304609087200,118.24208715820312,0.6800134181976318,-0.2358045130968094,-0.6340587139129639
1740578304705337000,118.33833715820313,0.6946843862533569,-0.22143547236919403,-0.6519674062728882
1740578304801587200,118.43458715820313,-0.6393521428108215,0.3976522386074066,0.656653642654419
1740578304897837000,118.53083715820313,-0.6495617628097534,0.4477601647377014,0.603145182132721
1740578304994087200,118.62708715820312,-0.6593496799468994,0.4896976053714752,0.5348853468894958
1740578305090337000,118.7233369140625,-0.6859099864959717,0.46725842356681824,0.5234752297401428
1740578305186587100,118.81958715820312,0.7218327522277832,-0.2819722294807434,-0.6287246942520142
1740578305282837000,118.9158369140625,0.6945763826370239,-0.23140327632427216,-0.6525923609733582
1740578305379087000,119.01208715820313,0.6591520309448242,-0.26473256945610046,-0.6462505459785461
1740578305475337200,119.10833715820313,0.6477393507957458,-0.2916715443134308,-0.6130549907684326
1740578305571587000,119.20458715820313,0.6971485614776611,-0.1827019602060318,-0.6135526299476624
1740578305667837200,119.30083715820312,0.6688879728317261,-0.2625948488712311,-0.6749743819236755
1740578305764087000,119.39708715820312,0.6925086975097656,-0.30269429087638855,-0.6507852077484131
1740578305860337200,119.49333715820312,-0.6962311863899231,0.3785058856010437,0.6098184585571289
1740578305956587000,119.5895869140625,-0.7470836639404297,0.3570198118686676,0.551861047744751
1740578306052837000,119.68583715820313,-0.6691884398460388,0.5053225755691528,0.4487312138080597
1740578306149087200,119.78208715820313,-0.7306650280952454,0.3355698585510254,0.5941318273544312
1740578306245337000,119.87833715820312,0.7136297225952148,-0.22512191534042358,-0.6428554654121399
1740578306341587200,119.97458715820312,0.6770657300949097,-0.245935320854187,-0.6547086834907532
1740578306437837000,120.07083715820312,0.6305349469184875,-0.30997031927108765,-0.6228498220443726
1740578306534087200,120.16708715820313,0.6586006879806519,-0.26390138268470764,-0.6295735239982605
1740578306630337000,120.2633369140625,0.6652028560638428,-0.2876221239566803,-0.6513532996177673
1740578306726587100,120.35958715820313,0.6831901669502258,-0.32239261269569397,-0.6389618515968323
1740578306822837000,120.4558369140625,-0.70195072889328,0.38576236367225647,0.5987074971199036
1740578306919087000,120.55208715820312,-0.7101196050643921,0.4552002251148224,0.5267622470855713
1740578307111587000,120.74458715820313,0.6963874101638794,-0.39228013157844543,-0.5991520285606384
1740578307207837200,120.84083715820313,0.6595978140830994,-0.3731573224067688,-0.6347551345825195
1740578307304087000,120.93708715820313,0.6261245608329773,-0.37599867582321167,-0.6364831924438477
1740578307400337200,121.03333715820312,0.6542936563491821,-0.31284353137016296,-0.6157931089401245
1740578307496587000,121.1295869140625,0.6952187418937683,-0.2469893991947174,-0.6375846862792969
1740578307592837000,121.22583715820312,-0.6584867835044861,0.40555453300476074,0.6336022615432739
1740578307689087200,121.32208715820312,-0.7012132406234741,0.40465036034584045,0.5833467841148376
1740578307785337000,121.41833715820313,-0.6643305420875549,0.5089458227157593,0.5156357884407043
1740578307881587200,121.51458715820313,-0.6661591529846191,0.5164826512336731,0.48069536685943604
1740578307977837000,121.61083715820313,0.7300624251365662,-0.29562294483184814,-0.6108331084251404
1740578308074087200,121.70708715820312,0.6871926784515381,-0.3253004252910614,-0.6431593298912048
1740578308170337000,121.8033369140625,0.6386748552322388,-0.31461143493652344,-0.6552412509918213
1740578308266587100,121.89958715820312,0.6360108852386475,-0.30777204036712646,-0.6584814190864563
1740578308362837000,121.9958369140625,0.6664642095565796,-0.2844898998737335,-0.5835627317428589
1740578308459087000,122.09208715820313,0.679401159286499,-0.25900810956954956,-0.6381587982177734
1740578308555337200,122.18833715820313,0.6545717716217041,-0.35165566205978394,-0.6663926839828491
1740578308651587000,122.28458715820312,-0.688894510269165,0.3567150831222534,0.6308591365814209
1740578308747837200,122.38083715820312,-0.6827245354652405,0.43139591813087463,0.5664008259773254
1740578308844087000,122.47708715820312,-0.6269828677177429,0.5341694355010986,0.5081647038459778
1740578308940337200,122.57333715820313,-0.5713386535644531,0.6348656415939331,0.44358816742897034
1740578309132837000,122.76583715820313,-0.6935293674468994,0.6253845691680908,0.3413448631763458
1740578309229087200,122.86208715820312,0.6583383679389954,-0.6422964334487915,-0.3832928240299225
1740578309325337000,122.95833715820312,0.6364725828170776,-0.5795604586601257,-0.5059946179389954
1740578309421587200,123.05458715820312,-0.6330571174621582,0.5788819193840027,0.5038871169090271
1740578309517837000,123.15083715820313,-0.6231576204299927,0.5982399582862854,0.431438148021698
1740578309614087200,123.24708715820313,-0.567589282989502,0.629833996295929,0.33691444993019104
1740578309710337000,123.3433369140625,-0.6498184204101562,0.5703395009040833,0.40090370178222656
1740578309806587100,123.43958715820312,0.7028940320014954,-0.35020682215690613,-0.6072447896003723
1740578309902837000,123.5358369140625,0.6400036215782166,-0.3605988323688507,-0.6352423429489136
1740578310095337200,123.72833715820312,0.5801610946655273,-0.34497764706611633,-0.6501548290252686
1740578310191587000,123.82458715820313,0.6380488276481628,-0.25378575921058655,-0.6722012758255005
1740578310287837200,123.92083715820313,0.623261570930481,-0.3296428620815277,-0.708912193775177
1740578310384087000,124.01708715820313,-0.6531136631965637,0.35363417863845825,0.6663427948951721
1740578310480337200,124.11333715820312,0.6377558708190918,-0.3357287347316742,-0.6924428343772888
1740578310576587000,124.2095869140625,0.6270294189453125,-0.22459354996681213,-0.6996555328369141
1740578310672837000,124.30583715820312,0.5599535703659058,-0.4054962396621704,-0.6847941875457764
