time,seconds_elapsed,z,y,x
1740578186590878200,0.223878173828125,-46.837501525878906,-15.21250057220459,-6.537499904632568
1740578186702837500,0.33583740234375,-46.650001525878906,-15.225000381469727,-6.637500286102295
1740578186799087400,0.43208740234375,-46.70000076293945,-15.237500190734863,-6.625
1740578186895337500,0.52833740234375,-46.67499923706055,-15.25,-6.650000095367432
1740578186991587600,0.624587646484375,-46.712501525878906,-15.27500057220459,-6.625
1740578187087837400,0.72083740234375,-46.72500228881836,-15.33750057220459,-6.5625
1740578187184087600,0.817087646484375,-46.712501525878906,-15.537500381469727,-6.425000190734863
1740578187280337400,0.91333740234375,-46.61249923706055,-15.675000190734863,-6.425000190734863
1740578187376587500,1.00958740234375,-46.57500076293945,-15.487500190734863,-6.900000095367432
1740578187472837400,1.10583740234375,-46.53750228881836,-15.15000057220459,-7.6875
1740578187569087500,1.20208740234375,-46.42499923706055,-15.175000190734863,-8.225000381469727
1740578187665337600,1.298337646484375,-46.28750228881836,-15.550000190734863,-8.362500190734863
1740578187761587500,1.39458740234375,-46.17499923706055,-16.11250114440918,-8.33750057220459
1740578187857837600,1.490837646484375,-45.95000076293945,-16.875,-8.387499809265137
1740578187954087400,1.58708740234375,-45.775001525878906,-17.48750114440918,-8.637499809265137
1740578188050337500,1.683337646484375,-45.775001525878906,-18,-8.850000381469727
1740578188146587400,1.77958740234375,-45.75,-18.8125,-8.600000381469727
1740578188242837500,1.87583740234375,-45.86249923706055,-19.625,-7.987500190734863
1740578188339087400,1.97208740234375,-46.07500076293945,-19.975000381469727,-7.512500286102295
1740578188435337500,2.06833740234375,-46.35000228881836,-20,-7.099999904632568
1740578188531587600,2.164587646484375,-46.57500076293945,-19.875,-6.262500286102295
1740578188627837400,2.26083740234375,-46.8125,-19.637500762939453,-4.825000286102295
1740578188724087600,2.357087646484375,-46.875,-19.600000381469727,-2.7750000953674316
1740578188820337400,2.45333740234375,-46.5625,-19.875,-0.16250000894069672
1740578188916587500,2.54958740234375,-45.97500228881836,-20.3125,2.9000000953674316
1740578189012837400,2.64583740234375,-45.25,-20.787500381469727,6.287499904632568
1740578189109087500,2.74208740234375,-44.212501525878906,-21.5,9.762499809265137
1740578189205337600,2.838337646484375,-42.79999923706055,-22.399999618530273,13.012499809265137
1740578189301587500,2.93458740234375,-41.03750228881836,-23.48750114440918,15.8125
1740578189397837600,3.030837646484375,-39.11249923706055,-24.575000762939453,18.17500114440918
1740578189494087400,3.12708740234375,-37.17499923706055,-25.575000762939453,20.11250114440918
1740578189590337500,3.223337646484375,-35.462501525878906,-26.412500381469727,21.587499618530273
1740578189686587400,3.31958740234375,-33.76250076293945,-27.23750114440918,22.712499618530273
1740578189782837500,3.41583740234375,-31.9375,-28.149999618530273,23.637500762939453
1740578189879087400,3.51208740234375,-30.162500381469727,-28.950000762939453,24.48750114440918
1740578189975337500,3.60833740234375,-28.80000114440918,-29.48750114440918,25.25
1740578190071587600,3.704587646484375,-27.887500762939453,-29.75,25.850000381469727
1740578190167837400,3.80083740234375,-27.30000114440918,-29.975000381469727,26.225000381469727
1740578190264087600,3.897087646484375,-26.850000381469727,-30.225000381469727,26.4375
1740578190360337400,3.99333740234375,-26.512500762939453,-30.48750114440918,26.537500381469727
1740578190456587500,4.08958740234375,-26.475000381469727,-30.875,26.287500381469727
1740578190552837400,4.18583740234375,-26.8125,-31.36250114440918,25.61250114440918
1740578190649087500,4.28208740234375,-27.875,-31.48750114440918,24.92500114440918
1740578190745337600,4.378337646484375,-29.162500381469727,-31.55000114440918,24.024999618530273
1740578190841587500,4.47458740234375,-30.462499618530273,-31.524999618530273,23.087499618530273
1740578190937837600,4.570837646484375,-31.850000381469727,-31.42500114440918,22
1740578191034087400,4.66708740234375,-33.4375,-31.137500762939453,20.899999618530273
1740578191130337500,4.763337646484375,-35.025001525878906,-30.649999618530273,19.98750114440918
1740578191226587400,4.85958740234375,-36.66250228881836,-29.8125,19.3125
1740578191322837500,4.95583740234375,-38.25,-28.8125,18.67500114440918
1740578191419087400,5.05208740234375,-39.337501525878906,-28.25,17.774999618530273
1740578191515337500,5.14833740234375,-40.212501525878906,-27.725000381469727,17.075000762939453
1740578191611587600,5.244587646484375,-41.20000076293945,-27.1875,16.200000762939453
1740578191707837400,5.34083740234375,-42.462501525878906,-26.212499618530273,14.65000057220459
1740578191804087600,5.437087646484375,-43.54999923706055,-25.25,12.162500381469727
1740578191900337400,5.53333740234375,-44.61249923706055,-24.387500762939453,9.33750057220459
1740578191996587500,5.62958740234375,-45.60000228881836,-23.512500762939453,6.450000286102295
1740578192092837400,5.72583740234375,-46.47500228881836,-22.524999618530273,3.625
1740578192189087500,5.82208740234375,-47.400001525878906,-21.274999618530273,0.8500000238418579
1740578192285337600,5.918337646484375,-48.28750228881836,-19.850000381469727,-2.174999952316284
1740578192381587500,6.01458740234375,-48.98749923706055,-18.55000114440918,-5.025000095367432
1740578192477837600,6.110837646484375,-49.28750228881836,-17.649999618530273,-7.012500286102295
1740578192574087400,6.20708740234375,-49.53750228881836,-16.787500381469727,-8.037500381469727
1740578192670337500,6.303337646484375,-49.78750228881836,-15.887499809265137,-8.862500190734863
1740578192766587400,6.39958740234375,-49.92499923706055,-15.050000190734863,-9.6875
1740578192862837500,6.49583740234375,-49.97500228881836,-14.33750057220459,-10.4375
1740578192959087400,6.59208740234375,-49.98749923706055,-13.787500381469727,-11.074999809265137
1740578193055337500,6.68833740234375,-49.85000228881836,-13.550000190734863,-11.475000381469727
1740578193151587600,6.784587646484375,-49.63750076293945,-13.537500381469727,-11.8125
1740578193247837400,6.88083740234375,-49.337501525878906,-13.75,-12.074999809265137
1740578193344087600,6.977087646484375,-49.125,-14.137499809265137,-12.237500190734863
1740578193440337400,7.07333740234375,-48.9375,-14.574999809265137,-12.324999809265137
1740578193536587500,7.16958740234375,-48.900001525878906,-14.9375,-12.237500190734863
1740578193632837400,7.26583740234375,-48.9375,-15.375,-12.0625
1740578193729087500,7.36208740234375,-48.95000076293945,-15.875,-11.762499809265137
1740578193825337600,7.458337646484375,-49.087501525878906,-16.3125,-11.387499809265137
1740578193921587500,7.55458740234375,-49.28750228881836,-16.55000114440918,-11.012499809265137
1740578194017837600,7.650837646484375,-49.61249923706055,-16.5625,-10.662500381469727
1740578194114087400,7.74708740234375,-49.875,-16.399999618530273,-10.412500381469727
1740578194210337500,7.843337646484375,-50.03750228881836,-16.262500762939453,-10.262499809265137
1740578194306587400,7.93958740234375,-50.07500076293945,-16.274999618530273,-10.1875
1740578194402837500,8.03583740234375,-50.07500076293945,-16.30000114440918,-10.137499809265137
1740578194499087400,8.13208740234375,-50.025001525878906,-16.36250114440918,-10.1875
1740578194595337500,8.22833740234375,-49.900001525878906,-16.5,-10.300000190734863
1740578194691587600,8.324587646484375,-49.712501525878906,-16.637500762939453,-10.449999809265137
1740578194787837400,8.42083740234375,-49.462501525878906,-16.825000762939453,-10.5625
1740578194884087600,8.517087646484375,-49.23749923706055,-16.98750114440918,-10.612500190734863
1740578194980337400,8.61333740234375,-49.04999923706055,-17.137500762939453,-10.637499809265137
1740578195076587500,8.70958740234375,-48.875,-17.23750114440918,-10.625
1740578195172837400,8.80583740234375,-48.712501525878906,-17.274999618530273,-10.574999809265137
1740578195269087500,8.90208740234375,-48.587501525878906,-17.23750114440918,-10.512499809265137
1740578195365337600,8.998337646484375,-48.51250076293945,-17.137500762939453,-10.46250057220459
1740578195461587500,9.09458740234375,-48.48749923706055,-17.11250114440918,-10.324999809265137
1740578195557837600,9.190837646484376,-48.275001525878906,-17.48750114440918,-10.1875
1740578195654087400,9.28708740234375,-47.337501525878906,-18.725000381469727,-10.1875
1740578195750337500,9.383337646484375,-45.29999923706055,-20.875,-10.40000057220459
1740578195846587400,9.47958740234375,-42.23749923706055,-23.662500381469727,-10.52500057220459
1740578195942837500,9.57583740234375,-38.712501525878906,-26.6875,-10.425000190734863
1740578196039087400,9.67208740234375,-35.38750076293945,-29.700000762939453,-10.25
1740578196135337500,9.76833740234375,-32.26250076293945,-32.60000228881836,-10.100000381469727
1740578196231587600,9.864587646484376,-29.287500381469727,-35.3125,-9.987500190734863
1740578196327837400,9.96083740234375,-27.200000762939453,-37.29999923706055,-9.83750057220459
1740578196424087600,10.057087646484375,-27.05000114440918,-37.53750228881836,-9.4375
1740578196520337400,10.15333740234375,-28.825000762939453,-35.91250228881836,-8.612500190734863
1740578196616587500,10.24958740234375,-31.825000762939453,-33.400001525878906,-7.762500286102295
1740578196712837400,10.34583740234375,-35.26250076293945,-30.537500381469727,-7.1875
1740578196809087500,10.44208740234375,-38.61249923706055,-27.5,-6.837500095367432
1740578196905337600,10.538337646484376,-41.775001525878906,-24.337499618530273,-6.662499904632568
1740578197001587500,10.63458740234375,-44.75,-21.1875,-6.712500095367432
1740578197097837600,10.730837646484375,-47.04999923706055,-18.287500381469727,-6.837500095367432
1740578197194087400,10.82708740234375,-48.16250228881836,-16.262500762939453,-7.025000095367432
1740578197290337500,10.923337646484375,-48.525001525878906,-15.199999809265137,-7.362500190734863
1740578197386587400,11.01958740234375,-48.67499923706055,-14.46250057220459,-7.875
1740578197482837500,11.11583740234375,-48.75,-13.887499809265137,-8.387499809265137
1740578197579087400,11.21208740234375,-48.76250076293945,-13.449999809265137,-8.787500381469727
1740578197675337500,11.30833740234375,-48.70000076293945,-13.125,-9.162500381469727
1740578197771587600,11.404587646484375,-48.66250228881836,-12.75,-9.27500057220459
1740578197867837400,11.50083740234375,-48.712501525878906,-12.77500057220459,-8.675000190734863
1740578197964087600,11.597087646484376,-48.47500228881836,-13.5,-6.787499904632568
1740578198060337400,11.69333740234375,-47.10000228881836,-15,-3.3375000953674316
1740578198156587500,11.78958740234375,-44.35000228881836,-16.325000762939453,1.837499976158142
1740578198252837400,11.88583740234375,-40.837501525878906,-16.55000114440918,8.15000057220459
1740578198349087500,11.98208740234375,-36.78750228881836,-15.71250057220459,14.90000057220459
1740578198445337600,12.078337646484375,-32.85000228881836,-14.0625,21.887500762939453
1740578198541587500,12.17458740234375,-28.837499618530273,-11.537500381469727,28.725000381469727
1740578198637837600,12.270837646484376,-25.100000381469727,-7.262500286102295,34.337501525878906
1740578198734087400,12.36708740234375,-22.0625,-1.649999976158142,38.04999923706055
1740578198830337500,12.463337646484375,-20.149999618530273,4.487500190734863,40.38750076293945
1740578198926587400,12.55958740234375,-19.274999618530273,10.175000190734863,41.3125
1740578199022837500,12.65583740234375,-18.637500762939453,13.987500190734863,41.53750228881836
1740578199119087400,12.75208740234375,-14.15000057220459,14.5625,41.22500228881836
1740578199215337500,12.84833740234375,-13.387499809265137,14.550000190734863,41.1875
1740578199311587600,12.944587646484376,-12.362500190734863,13.925000190734863,41.275001525878906
1740578199407837400,13.04083740234375,-10.71250057220459,12.600000381469727,41.85000228881836
1740578199504087600,13.137087646484375,-8.887499809265137,10.58750057220459,42.962501525878906
1740578199600337400,13.23333740234375,-7.0625,8.949999809265137,43.88750076293945
1740578199696587500,13.32958740234375,-5.375,7.200000286102295,44.66250228881836
1740578199792837400,13.42583740234375,-4.512500286102295,5.887500286102295,45.10000228881836
1740578199889087500,13.52208740234375,-4.037499904632568,5.512500286102295,45.375
1740578199985337600,13.618337646484376,-3.7750000953674316,6,45.650001525878906
1740578200081587500,13.71458740234375,-3.6000001430511475,6.8125,45.775001525878906
1740578200177837600,13.810837646484375,-3.6000001430511475,7.987500190734863,45.61249923706055
1740578200274087400,13.90708740234375,-3.3375000953674316,9.6875,45.11249923706055
1740578200370337500,14.003337646484376,-3.2125000953674316,11.40000057220459,44.45000076293945
1740578200466587400,14.09958740234375,-3.375,13.537500381469727,43.57500076293945
1740578200562837500,14.19583740234375,-3.375,16.0625,42.48749923706055
1740578200659087400,14.29208740234375,-3.25,18.887500762939453,41.23749923706055
1740578200755337500,14.38833740234375,-3.137500047683716,21.475000381469727,39.88750076293945
1740578200851587600,14.484587646484375,-3.299999952316284,23.387500762939453,38.61249923706055
1740578200947837400,14.58083740234375,-3.4750001430511475,24.3125,37.6875
1740578201044087600,14.677087646484376,-3.6500000953674316,24.649999618530273,37.087501525878906
1740578201140337400,14.77333740234375,-3.637500047683716,24.912500381469727,36.63750076293945
1740578201236587500,14.86958740234375,-3.549999952316284,25.149999618530273,36.29999923706055
1740578201332837400,14.96583740234375,-3.4000000953674316,25.387500762939453,36.11249923706055
1740578201429087500,15.06208740234375,-3.325000047683716,25.587499618530273,36.04999923706055
1740578201525337600,15.158337646484375,-3.262500047683716,25.774999618530273,36.07500076293945
1740578201621587500,15.25458740234375,-3.25,25.9375,36.13750076293945
1740578201717837600,15.350837646484376,-3.299999952316284,26.05000114440918,36.23749923706055
1740578201814087400,15.44708740234375,-3.4375,26.149999618530273,36.375
1740578201910337500,15.543337646484375,-3.612499952316284,26.200000762939453,36.5
1740578202006587400,15.63958740234375,-3.762500047683716,26.212499618530273,36.57500076293945
1740578202102837500,15.73583740234375,-3.9375,26.225000381469727,36.61249923706055
1740578202199087400,15.83208740234375,-4.150000095367432,26.225000381469727,36.63750076293945
1740578202295337500,15.92833740234375,-4.450000286102295,26.25,36.63750076293945
1740578202391587600,16.024587646484374,-4.8125,26.274999618530273,36.625
1740578202487837400,16.12083740234375,-5.287499904632568,26.30000114440918,36.57500076293945
1740578202680337400,16.31333740234375,-6.575000286102295,26.36250114440918,36.26250076293945
1740578202776587500,16.40958740234375,-7.474999904632568,26.350000381469727,36.087501525878906
1740578202872837400,16.50583740234375,-8.4375,26.325000762939453,35.91250228881836
1740578202969087500,16.60208740234375,-9.65000057220459,26.137500762939453,35.76250076293945
1740578203065337600,16.698337646484376,-10.800000190734863,26.024999618530273,35.51250076293945
1740578203161587500,16.79458740234375,-11.875,26.037500381469727,35.10000228881836
1740578203257837600,16.890837646484375,-12.83750057220459,26.225000381469727,34.525001525878906
1740578203354087400,16.98708740234375,-13.625,26.61250114440918,33.775001525878906
1740578203450337500,17.083337646484374,-14.300000190734863,27.125,32.91250228881836
1740578203546587400,17.17958740234375,-14.77500057220459,27.8125,31.887500762939453
1740578203739087400,17.37208740234375,-14.75,29.662500381469727,29.61250114440918
1740578203835337500,17.46833740234375,-13.600000381469727,30.67500114440918,28.575000762939453
1740578203931587600,17.564587646484377,-11.912500381469727,31.212499618530273,27.98750114440918
1740578204027837400,17.66083740234375,-9.5625,31.11250114440918,27.92500114440918
1740578204124087600,17.757087646484376,-6.675000190734863,30.575000762939453,28.125
1740578204220337400,17.85333740234375,-3.6000001430511475,30,28.287500381469727
1740578204316587500,17.94958740234375,-0.5375000238418579,29.475000381469727,28.412500381469727
1740578204412837400,18.04583740234375,2.2750000953674316,28.6875,28.762500762939453
1740578204509087500,18.14208740234375,4.425000190734863,28,29.024999618530273
1740578204605337600,18.238337646484375,10.3125,28.787500381469727,26.825000762939453
1740578204701587500,18.33458740234375,10.412500381469727,28.73750114440918,26.5625
1740578204797837600,18.430837646484374,9.699999809265137,29.225000381469727,25.887500762939453
1740578204894087400,18.52708740234375,8.237500190734863,29.9375,25.1875
1740578204990337500,18.623337646484377,6.575000286102295,30.475000381469727,24.73750114440918
1740578205086587400,18.71958740234375,4.825000286102295,30.787500381469727,24.587499618530273
1740578205182837500,18.81583740234375,3.2250001430511475,31.212499618530273,24.387500762939453
1740578205279087400,18.91208740234375,1.8875000476837158,31.4375,24.399999618530273
1740578205375337500,19.00833740234375,0.9375,31.412500381469727,24.637500762939453
1740578205471587600,19.104587646484376,0.45000001788139343,31.337499618530273,24.975000381469727
1740578205567837400,19.20083740234375,0.30000001192092896,31.200000762939453,25.42500114440918
1740578205664087600,19.297087646484375,0.5,31.125,25.92500114440918
1740578205760337400,19.39333740234375,1.212499976158142,31.075000762939453,26.4375
1740578205856587500,19.48958740234375,2.7125000953674316,30.899999618530273,26.912500381469727
1740578205952837400,19.58583740234375,4.512500286102295,30.537500381469727,27.4375
1740578206049087500,19.68208740234375,6.275000095367432,30.075000762939453,27.950000762939453
1740578206145337600,19.778337646484374,8.02500057220459,29.5,28.537500381469727
1740578206241587500,19.87458740234375,9.824999809265137,28.774999618530273,29.125
1740578206337837600,19.970837646484377,11.574999809265137,28.024999618530273,29.662500381469727
1740578206434087400,20.06708740234375,13.100000381469727,27.23750114440918,30.162500381469727
1740578206530337500,20.163337646484376,14.012499809265137,26.5,30.662500381469727
1740578206626587400,20.25958740234375,14.15000057220459,25.9375,31.17500114440918
1740578206722837500,20.35583740234375,13.987500190734863,25.587499618530273,31.575000762939453
1740578206819087400,20.45208740234375,13.987500190734863,25.387500762939453,31.875
1740578206915337500,20.54833740234375,14.125,25.387500762939453,31.950000762939453
1740578207011587600,20.644587646484375,14.1875,25.625,31.887500762939453
1740578207107837400,20.74083740234375,14.175000190734863,26.037500381469727,31.774999618530273
1740578207204087600,20.837087646484374,13.925000190734863,26.600000381469727,31.625
1740578207300337400,20.93333740234375,13.050000190734863,27.42500114440918,31.350000381469727
1740578207396587500,21.02958740234375,11.449999809265137,28.375,30.9375
1740578207492837400,21.12583740234375,9.512499809265137,29.36250114440918,30.48750114440918
1740578207589087500,21.22208740234375,7.137500286102295,30.399999618530273,29.887500762939453
1740578207685337600,21.318337646484373,4.349999904632568,31.450000762939453,29.225000381469727
1740578207781587500,21.41458740234375,1.225000023841858,32.41250228881836,28.475000381469727
1740578207877837600,21.510837646484376,-1.4500000476837158,33.337501525878906,27.899999618530273
1740578207974087400,21.60708740234375,-2.7875001430511475,34.025001525878906,27.725000381469727
1740578208070337500,21.703337646484375,-2.9000000953674316,33.88750076293945,28.1875
1740578208166587400,21.79958740234375,-1.8125,32.775001525878906,29.350000381469727
1740578208262837500,21.89583740234375,0.0625,31.375,30.67500114440918
1740578208359087400,21.99208740234375,2.6875,29.8125,32.16250228881836
1740578208455337500,22.08833740234375,5.5625,27.962499618530273,33.88750076293945
1740578208551587600,22.184587646484374,8.350000381469727,26.399999618530273,35.76250076293945
1740578208647837400,22.28083740234375,10.162500381469727,25.337499618530273,37.275001525878906
1740578208840337400,22.47333740234375,8.725000381469727,25.012500762939453,38.16250228881836
1740578208936587500,22.56958740234375,6.537499904632568,26.225000381469727,37.36249923706055
1740578209032837400,22.66583740234375,4.700000286102295,27.662500381469727,36.650001525878906
1740578209129087500,22.76208740234375,3.5625,28.725000381469727,36.375
1740578209225337600,22.858337646484376,2.6625001430511475,29.287500381469727,36.462501525878906
1740578209321587500,22.95458740234375,2.674999952316284,28.875,36.86249923706055
1740578209417837600,23.050837646484375,3.3375000953674316,27.887500762939453,37.587501525878906
1740578209514087400,23.14708740234375,4.625,26.149999618530273,38.712501525878906
1740578209610337500,23.243337646484374,6.849999904632568,24.524999618530273,40.087501525878906
1740578209706587400,23.33958740234375,8.987500190734863,23.6875,41.41250228881836
1740578209802837500,23.43583740234375,9.537500381469727,23.524999618530273,42.212501525878906
1740578209899087400,23.53208740234375,7.974999904632568,24.0625,42.32500076293945
1740578209995337500,23.62833740234375,5.887500286102295,25.399999618530273,41.85000228881836
1740578210091587600,23.724587646484373,4.575000286102295,27.075000762939453,41.48749923706055
1740578210187837400,23.82083740234375,4.1875,27.912500381469727,41.51250076293945
1740578210284087600,23.917087646484376,4.137500286102295,28.287500381469727,41.73749923706055
1740578210380337400,24.01333740234375,4.862500190734863,27.75,42.025001525878906
1740578210476587500,24.10958740234375,6.012500286102295,26.262500762939453,42.70000076293945
1740578210572837400,24.20583740234375,7.724999904632568,24.075000762939453,43.8125
1740578210669087500,24.30208740234375,10.112500190734863,22.25,45.10000228881836
1740578210765337600,24.398337646484375,12.162500381469727,21.575000762939453,46.150001525878906
1740578210861587500,24.49458740234375,11.75,21.837499618530273,46.4375
1740578210957837600,24.590837646484374,9.425000190734863,23.262500762939453,45.92499923706055
1740578211054087400,24.68708740234375,7.212500095367432,25.575000762939453,45.13750076293945
1740578211150337500,24.783337646484377,5.925000190734863,27.61250114440918,45.11249923706055
1740578211246587400,24.87958740234375,5.200000286102295,28.762500762939453,45.42499923706055
1740578211342837500,24.97583740234375,5.25,28.92500114440918,45.86249923706055
1740578211439087400,25.07208740234375,6.075000286102295,28.350000381469727,46.38750076293945
1740578211535337500,25.16833740234375,7.387500286102295,26.17500114440918,47.462501525878906
1740578211631587600,25.264587646484376,9.787500381469727,24.149999618530273,48.85000228881836
1740578211727837400,25.36083740234375,12.412500381469727,23.1875,50.1875
1740578211824087600,25.457087646484375,13.25,23.325000762939453,50.875
1740578211920337400,25.55333740234375,11.324999809265137,24.962499618530273,50.07500076293945
1740578212016587500,25.64958740234375,9.0625,27.700000762939453,48.75
1740578212112837400,25.74583740234375,8.112500190734863,30.412500381469727,48.212501525878906
1740578212209087500,25.84208740234375,7.362500190734863,31.73750114440918,48.400001525878906
1740578212305337600,25.938337646484374,7.575000286102295,32.125,48.57500076293945
1740578212401587500,26.03458740234375,8.725000381469727,32.11249923706055,48.5
1740578212497837600,26.130837646484373,10.237500190734863,30.162500381469727,49.10000228881836
1740578212594087400,26.22708740234375,13.125,28.512500762939453,49.85000228881836
1740578212690337500,26.323337646484376,17.012500762939453,28.3125,49.95000076293945
1740578212882837500,26.51583740234375,18.375,31.587499618530273,46.95000076293945
1740578212979087400,26.61208740234375,16.462499618530273,35.61249923706055,43.85000228881836
1740578213075337500,26.70833740234375,15.46250057220459,39.900001525878906,41.95000076293945
1740578213171587600,26.804587646484375,15.012499809265137,42.36249923706055,41.26250076293945
1740578213267837400,26.90083740234375,15.324999809265137,43.9375,40.8125
1740578213364087600,26.997087646484374,17.375,43.79999923706055,39.900001525878906
1740578213460337400,27.09333740234375,20.25,41.16250228881836,39.88750076293945
1740578213556587500,27.18958740234375,23.73750114440918,37.67499923706055,41.13750076293945
1740578213652837400,27.28583740234375,27,35.13750076293945,43.20000076293945
1740578213749087500,27.38208740234375,29.48750114440918,33.79999923706055,44.650001525878906
1740578213845337600,27.478337646484373,28.537500381469727,34.07500076293945,44.41250228881836
1740578213941587500,27.57458740234375,25.637500762939453,35.88750076293945,43.16250228881836
1740578214037837600,27.670837646484376,23.92500114440918,38.04999923706055,42.29999923706055
1740578214134087400,27.76708740234375,21.774999618530273,38.73749923706055,43.10000228881836
1740578214230337500,27.863337646484375,19.225000381469727,38.400001525878906,44.67499923706055
1740578214326587400,27.95958740234375,19.48750114440918,37.36249923706055,44.67499923706055
1740578214422837500,28.05583740234375,21.975000381469727,34.54999923706055,44.01250076293945
1740578214519087400,28.15208740234375,25.075000762939453,30.637500762939453,44.26250076293945
1740578214615337500,28.24833740234375,28.325000762939453,27.75,45.28750228881836
1740578214711587600,28.344587646484374,31.100000381469727,26.100000381469727,46.025001525878906
1740578214807837400,28.44083740234375,30.412500381469727,26.25,45.60000228881836
1740578214904087600,28.537087646484373,27.61250114440918,28.387500762939453,44.11249923706055
1740578215000337400,28.63333740234375,25.67500114440918,31.137500762939453,42.85000228881836
1740578215096587500,28.72958740234375,22.850000381469727,32.3125,43.60000228881836
1740578215192837400,28.82583740234375,19.462499618530273,32.3125,45.212501525878906
1740578215289087500,28.92208740234375,18.48750114440918,31.787500381469727,45.53750228881836
1740578215385337600,29.018337646484376,19.92500114440918,29.8125,44.712501525878906
1740578215481587500,29.11458740234375,21.80000114440918,26.36250114440918,44.66250228881836
1740578215577837600,29.210837646484375,24.225000381469727,23.625,45.125
1740578215674087400,29.30708740234375,26.887500762939453,21.9375,45.42499923706055
1740578215770337500,29.403337646484374,26.850000381469727,21.80000114440918,44.98749923706055
1740578215866587400,29.49958740234375,25.05000114440918,23.899999618530273,43.400001525878906
1740578215962837500,29.59583740234375,24.325000762939453,26.375,42.11249923706055
1740578216059087400,29.69208740234375,22.662500381469727,27.86250114440918,42.07500076293945
1740578216155337500,29.78833740234375,20.225000381469727,27.762500762939453,42.95000076293945
1740578216251587600,29.884587646484373,20.087499618530273,27.149999618530273,42.47500228881836
1740578216347837400,29.98083740234375,21.662500381469727,24.975000381469727,41.20000076293945
1740578216444087600,30.077087646484376,23.36250114440918,21.649999618530273,40.63750076293945
1740578216540337400,30.17333740234375,25.337499618530273,18.575000762939453,40.78750228881836
1740578216636587500,30.26958740234375,27.4375,16.475000381469727,40.82500076293945
1740578216732837400,30.36583740234375,26.875,16.037500381469727,40.29999923706055
1740578216829087500,30.46208740234375,24.649999618530273,17.200000762939453,39.23749923706055
1740578216925337600,30.558337646484375,23.212499618530273,18.9375,38.16250228881836
1740578217021587500,30.65458740234375,20.67500114440918,19.75,38.38750076293945
1740578217117837600,30.750837646484374,17.73750114440918,19.774999618530273,39.10000228881836
1740578217214087400,30.84708740234375,16.75,19.4375,38.6875
1740578217310337500,30.943337646484373,17.537500381469727,18.149999618530273,37.17499923706055
1740578217406587400,31.03958740234375,18.212499618530273,15.912500381469727,36.375
1740578217502837500,31.13583740234375,19.387500762939453,14,35.8125
1740578217599087400,31.23208740234375,20.5625,12.850000381469727,35.23749923706055
1740578217695337500,31.32833740234375,19.700000762939453,13.100000381469727,34.25
1740578217791587600,31.424587646484376,17.762500762939453,15.0625,32.73749923706055
1740578217887837400,31.52083740234375,16.662500381469727,17.399999618530273,31.587499618530273
1740578217984087600,31.617087646484375,14.6875,19.25,31.762500762939453
1740578218080337400,31.71333740234375,13.08750057220459,20.087499618530273,32.66250228881836
1740578218176587500,31.80958740234375,13.387499809265137,20.587499618530273,32.67499923706055
1740578218272837400,31.90583740234375,15.112500190734863,20.5,32.3125
1740578218369087500,32.00208740234375,17.25,19.725000381469727,32.587501525878906
1740578218465337600,32.098337646484374,19.325000762939453,19.287500381469727,33.587501525878906
1740578218561587500,32.19458740234375,21.162500381469727,19.712499618530273,34.47500228881836
1740578218657837600,32.29083764648438,20.73750114440918,21.23750114440918,34.900001525878906
1740578218754087400,32.38708740234375,19.100000381469727,23.712499618530273,34.66250228881836
1740578218850337500,32.48333764648437,16.962499618530273,26.75,34.5
1740578218946587400,32.57958740234375,15.15000057220459,28.262500762939453,35.41250228881836
1740578219042837500,32.67583740234375,13.0625,28.325000762939453,36.57500076293945
1740578219139087400,32.77208740234375,12.362500190734863,27.037500381469727,36.85000228881836
1740578219235337500,32.86833740234375,13.800000190734863,25.024999618530273,35.85000228881836
1740578219331587600,32.964587646484375,15.862500190734863,21.75,35.16250228881836
1740578219427837400,33.06083740234375,18.274999618530273,18.524999618530273,35.125
1740578219524087600,33.15708764648438,20.350000381469727,16.3125,35.28750228881836
1740578219620337400,33.25333740234375,21.387500762939453,15.21250057220459,34.875
1740578219716587500,33.34958740234375,19.762500762939453,16.149999618530273,33.66250228881836
1740578219812837400,33.44583740234375,17.67500114440918,18.17500114440918,32.26250076293945
1740578219909087500,33.54208740234375,15.699999809265137,20.462499618530273,31.8125
1740578220005337600,33.63833764648437,13.350000381469727,21.61250114440918,32.4375
1740578220101587500,33.73458740234375,11.737500190734863,22.075000762939453,33.087501525878906
1740578220197837600,33.830837646484376,12.27500057220459,21.700000762939453,32.5625
1740578220294087400,33.92708740234375,14.0625,19.875,31.8125
1740578220390337500,34.02333764648437,15.65000057220459,17.912500381469727,31.825000762939453
1740578220486587400,34.11958740234375,17.399999618530273,16.412500381469727,32.212501525878906
1740578220582837500,34.21583740234375,18.73750114440918,15.71250057220459,32.35000228881836
1740578220679087400,34.31208740234375,17.73750114440918,16.30000114440918,31.762500762939453
1740578220775337500,34.40833740234375,15.824999809265137,17.9375,30.625
1740578220871587600,34.504587646484374,14.1875,19.899999618530273,30.012500762939453
1740578220967837400,34.60083740234375,12,21.087499618530273,30.5
1740578221064087600,34.69708764648438,10.02500057220459,21.5625,31.337499618530273
1740578221160337400,34.79333740234375,10.350000381469727,21.05000114440918,31.087499618530273
1740578221256587500,34.88958740234375,11.787500381469727,19.649999618530273,30.600000381469727
1740578221352837400,34.98583740234375,13.27500057220459,17.899999618530273,30.700000762939453
1740578221449087500,35.08208740234375,14.787500381469727,16.587499618530273,31.262500762939453
1740578221545337600,35.17833764648437,15.912500381469727,15.987500190734863,31.73750114440918
1740578221641587500,35.27458740234375,14.975000381469727,16.375,31.42500114440918
1740578221737837600,35.370837646484375,12.850000381469727,17.887500762939453,30.350000381469727
1740578221834087400,35.46708740234375,10.824999809265137,20.024999618530273,29.575000762939453
1740578221930337500,35.56333764648438,8.5625,21.575000762939453,30.0625
1740578222026587400,35.65958740234375,6.625,22.4375,30.8125
1740578222122837500,35.75583740234375,6.650000095367432,22.36250114440918,30.825000762939453
1740578222219087400,35.85208740234375,8.350000381469727,21.5,30.30000114440918
1740578222315337500,35.94833740234375,10.362500190734863,20.037500381469727,30.23750114440918
1740578222411587600,36.04458764648437,12.125,19.075000762939453,30.725000381469727
1740578222507837400,36.14083740234375,13.875,18.6875,31.137500762939453
1740578222604087600,36.237087646484376,13.975000381469727,19,30.8125
1740578222700337400,36.33333740234375,12.3125,20.450000762939453,29.537500381469727
1740578222796587500,36.42958740234375,10.612500190734863,22.399999618530273,28.325000762939453
1740578222892837400,36.52583740234375,8.96250057220459,23.975000381469727,28.25
1740578222989087500,36.62208740234375,7.112500190734863,24.787500381469727,28.825000762939453
1740578223085337600,36.71833764648437,6.900000095367432,24.662500381469727,28.950000762939453
1740578223181587500,36.81458740234375,8.762499809265137,23.80000114440918,28.30000114440918
1740578223277837600,36.910837646484374,11,22.137500762939453,28.23750114440918
1740578223374087400,37.00708740234375,12.862500190734863,20.950000762939453,28.875
1740578223470337500,37.10333764648438,14.512499809265137,20.42500114440918,29.475000381469727
1740578223566587400,37.19958740234375,14.75,20.399999618530273,29.537500381469727
1740578223662837500,37.29583740234375,12.975000381469727,21.475000381469727,28.575000762939453
1740578223759087400,37.39208740234375,11.324999809265137,23.05000114440918,27.55000114440918
1740578223855337500,37.48833740234375,9.699999809265137,24.587499618530273,27.5
1740578224047837400,37.68083740234375,7.337500095367432,25.23750114440918,28.712499618530273
1740578224144087600,37.777087646484375,8.787500381469727,24.4375,28.48750114440918
1740578224240337400,37.87333740234375,10.75,22.875,28.73750114440918
1740578224336587500,37.96958740234375,12.449999809265137,21.725000381469727,29.5625
1740578224432837400,38.06583740234375,13.975000381469727,21.225000381469727,30.350000381469727
1740578224529087500,38.16208740234375,14.037500381469727,21.25,30.5625
1740578224625337600,38.25833764648438,12.25,22.337499618530273,29.662500381469727
1740578224721587500,38.35458740234375,10.25,24.125,28.55000114440918
1740578224817837600,38.45083764648437,8.52500057220459,25.837499618530273,28.4375
1740578224914087400,38.54708740234375,6.6875,26.837499618530273,28.98750114440918
1740578225010337500,38.643337646484376,6.150000095367432,26.887500762939453,29.42500114440918
1740578225106587400,38.73958740234375,7.599999904632568,26.212499618530273,29.212499618530273
1740578225202837500,38.83583740234375,9.75,24.5625,29.475000381469727
1740578225299087400,38.93208740234375,11.77500057220459,23.100000381469727,30.412500381469727
1740578225395337500,39.02833740234375,13.362500190734863,22.350000381469727,31.399999618530273
1740578225491587600,39.12458764648437,13.824999809265137,22.137500762939453,31.887500762939453
1740578225587837400,39.22083740234375,12.112500190734863,22.950000762939453,31.137500762939453
1740578225684087600,39.317087646484374,9.975000381469727,24.512500762939453,29.875
1740578225780337400,39.41333740234375,8,26.450000762939453,29.274999618530273
1740578225876587500,39.50958740234375,5.950000286102295,27.662500381469727,29.5625
1740578225972837400,39.60583740234375,4.8125,28.087499618530273,30.024999618530273
1740578226069087500,39.70208740234375,5.650000095367432,27.774999618530273,29.837499618530273
1740578226165337600,39.79833764648438,7.650000095367432,26.287500381469727,30.024999618530273
1740578226261587500,39.89458740234375,9.46250057220459,24.837499618530273,30.787500381469727
1740578226357837600,39.99083764648437,10.787500381469727,24.100000381469727,31.649999618530273
1740578226454087400,40.08708740234375,11.27500057220459,23.725000381469727,32.22500228881836
1740578226550337500,40.183337646484375,9.58750057220459,24.024999618530273,31.600000381469727
1740578226646587400,40.27958740234375,7.075000286102295,25.100000381469727,30.274999618530273
1740578226742837500,40.37583740234375,4.862500190734863,26.75,29.412500381469727
1740578226839087400,40.47208740234375,2.987499952316284,27.887500762939453,29.4375
1740578226935337500,40.56833740234375,1.774999976158142,28.48750114440918,29.662500381469727
1740578227031587600,40.66458764648438,2.7125000953674316,28.3125,29.350000381469727
1740578227127837400,40.76083740234375,4.974999904632568,27.137500762939453,29.3125
1740578227224087600,40.85708764648437,7.474999904632568,25.700000762939453,29.86250114440918
1740578227320337400,40.95333740234375,9.699999809265137,24.950000762939453,30.700000762939453
1740578227416587500,41.04958740234375,11.33750057220459,24.55000114440918,31.36250114440918
1740578227512837400,41.14583740234375,10.83750057220459,24.649999618530273,30.92500114440918
1740578227609087500,41.24208740234375,8.725000381469727,25.5,29.512500762939453
1740578227705337600,41.338337646484376,6.412499904632568,26.92500114440918,28.17500114440918
1740578227801587500,41.43458740234375,4.224999904632568,27.850000381469727,27.875
1740578227897837600,41.53083764648437,2.325000047683716,28.125,27.837499618530273
1740578227994087400,41.62708740234375,2.174999952316284,27.399999618530273,27.55000114440918
1740578228090337500,41.723337646484374,3.9000000953674316,25.950000762939453,27.100000381469727
1740578228186587400,41.81958740234375,6.300000190734863,24.17500114440918,26.899999618530273
1740578228282837500,41.91583740234375,8.5625,22.6875,27.337499618530273
1740578228379087400,42.01208740234375,10.175000190734863,21.774999618530273,27.899999618530273
1740578228475337500,42.10833740234375,10.362500190734863,21.3125,27.86250114440918
1740578228571587600,42.20458764648438,8.387499809265137,21.6875,26.700000762939453
1740578228667837400,42.30083740234375,5.825000286102295,22.825000762939453,25.1875
1740578228764087600,42.39708764648437,3.0250000953674316,24.649999618530273,24.600000381469727
1740578228860337400,42.49333740234375,0.4124999940395355,26.024999618530273,25.075000762939453
1740578228956587500,42.58958740234375,-1.287500023841858,26.649999618530273,26.137500762939453
1740578229149087500,42.78208740234375,0.987500011920929,25.962499618530273,27.899999618530273
1740578229245337600,42.878337646484376,3.1000001430511475,25.100000381469727,29.350000381469727
1740578229341587500,42.97458740234375,4.662499904632568,24.962499618530273,30.92500114440918
1740578229437837600,43.07083764648438,5.825000286102295,25.25,32.087501525878906
1740578229534087400,43.16708740234375,5.162499904632568,25.762500762939453,31.950000762939453
1740578229630337500,43.26333764648437,3.0250000953674316,26.700000762939453,30.625
1740578229726587400,43.35958740234375,0.22500000894069672,28.3125,28.887500762939453
1740578229822837500,43.45583740234375,-2.4750001430511475,29.86250114440918,28.087499618530273
1740578229919087400,43.55208740234375,-4.875,31.287500381469727,27.55000114440918
1740578230015337500,43.64833740234375,-6.287499904632568,32.0625,27.399999618530273
1740578230207837400,43.84083740234375,-4.037499904632568,31.387500762939453,28.262500762939453
1740578230304087600,43.93708764648437,-1.8875000476837158,30.700000762939453,29.387500762939453
1740578230400337400,44.03333740234375,0.08749999850988388,30.637500762939453,30.412500381469727
1740578230496587500,44.12958740234375,1.2625000476837158,30.700000762939453,31.087499618530273
1740578230592837400,44.22583740234375,0.5875000357627869,31.012500762939453,30.5625
1740578230689087500,44.32208740234375,-1.0125000476837158,31.537500381469727,29.375
1740578230785337600,44.418337646484375,-3.3500001430511475,32.587501525878906,27.475000381469727
1740578230881587500,44.51458740234375,-6.487500190734863,33.60000228881836,25.462499618530273
1740578230977837600,44.61083764648438,-9.199999809265137,34.95000076293945,23.5625
1740578231074087400,44.70708740234375,-10.362500190734863,36.03750228881836,22.600000381469727
1740578231170337500,44.80333764648437,-10.175000190734863,35.88750076293945,22.899999618530273
1740578231266587400,44.89958740234375,-8.33750057220459,34.97500228881836,23.9375
1740578231362837500,44.99583740234375,-5.1875,33.91250228881836,25.287500381469727
1740578231459087400,45.09208740234375,-1.4500000476837158,32.66250228881836,27.037500381469727
1740578231555337500,45.18833740234375,1.6750000715255737,32.01250076293945,28.725000381469727
1740578231651587600,45.284587646484376,4.300000190734863,32.03750228881836,29.950000762939453
1740578231747837400,45.38083740234375,5.512500286102295,32.10000228881836,30.67500114440918
1740578231844087600,45.47708764648438,4.6875,32.375,30.100000381469727
1740578231940337400,45.57333740234375,3.125,33.25,28.61250114440918
1740578232036587500,45.66958740234375,1.75,34.45000076293945,27.5
1740578232229087500,45.86208740234375,0.7250000238418579,35.23749923706055,27.287500381469727
1740578232325337600,45.958337646484374,2.612499952316284,34.41250228881836,27.399999618530273
1740578232421587500,46.05458740234375,5.474999904632568,32.837501525878906,27.98750114440918
1740578232517837600,46.150837646484376,8.887499809265137,31.212499618530273,28.950000762939453
1740578232614087400,46.24708740234375,11.887499809265137,30.350000381469727,30.325000762939453
1740578232710337500,46.34333764648437,14.300000190734863,30.162500381469727,31.412500381469727
1740578232806587400,46.43958740234375,14.375,30.537500381469727,31.337499618530273
1740578232902837500,46.53583740234375,12.52500057220459,31.67500114440918,30.012500762939453
1740578232999087400,46.63208740234375,10.112500190734863,33.66250228881836,28.274999618530273
1740578233095337500,46.72833740234375,8.112500190734863,35.41250228881836,27.787500381469727
1740578233287837400,46.92083740234375,6.512500286102295,36.66250228881836,28.5
1740578233384087600,47.01708764648438,8.52500057220459,36.07500076293945,28.399999618530273
1740578233480337400,47.11333740234375,11.625,34.4375,28.837499618530273
1740578233576587500,47.20958740234375,14.737500190734863,33.03750228881836,30.037500381469727
1740578233672837400,47.30583740234375,17.137500762939453,32.5,31.48750114440918
1740578233769087500,47.40208740234375,18.1875,32.525001525878906,32.35000228881836
1740578233865337600,47.49833764648437,16.375,33.29999923706055,31.6875
1740578233961587500,47.59458740234375,13.537500381469727,34.91250228881836,30.1875
1740578234057837600,47.690837646484376,11.25,36.85000228881836,29.512500762939453
1740578234154087400,47.78708740234375,9.237500190734863,37.650001525878906,30.225000381469727
1740578234250337500,47.88333764648438,7.887500286102295,37.75,31.17500114440918
1740578234346587400,47.97958740234375,8.862500190734863,37.16250228881836,31.05000114440918
1740578234442837500,48.07583740234375,11.425000190734863,35.38750076293945,31.25
1740578234539087400,48.17208740234375,14.162500381469727,33.28750228881836,32.400001525878906
1740578234635337500,48.26833740234375,16.700000762939453,32.025001525878906,33.91250228881836
1740578234731587600,48.364587646484374,18.3125,31.399999618530273,35.04999923706055
1740578234827837400,48.46083740234375,16.92500114440918,31.625,34.5
1740578234924087600,48.557087646484376,13.850000381469727,33.10000228881836,32.625
1740578235020337400,48.65333740234375,10.9375,35.20000076293945,31.475000381469727
1740578235116588500,48.749588623046876,7.987500190734863,36.63750076293945,31.887500762939453
1740578235212838000,48.845837890625,5.137500286102295,37.60000228881836,32.73749923706055
1740578235405337900,49.038337890625,7.737500190734863,37.63750076293945,31.887500762939453
1740578235501588000,49.134587890625,11.487500190734863,36.1875,31.662500381469727
1740578235597838000,49.23083813476563,15.90000057220459,35.41250228881836,31.67500114440918
1740578235694088000,49.327087890625,19.5625,35.1875,31.962499618530273
1740578235790338000,49.42333813476562,20.399999618530273,35.73749923706055,31.075000762939453
1740578235886588000,49.519587890625,19.462499618530273,37.20000076293945,28.962499618530273
1740578235982838000,49.615838134765625,19.05000114440918,39.150001525878906,26.5
1740578236079087900,49.712087890625,18.774999618530273,40.38750076293945,24.962499618530273
1740578236175338000,49.808337890625,17.86250114440918,40.95000076293945,24.337499618530273
1740578236271588000,49.904588134765625,16.662500381469727,40.712501525878906,24.61250114440918
1740578236367838000,50.000837890625,15.537500381469727,39.400001525878906,25.55000114440918
1740578236464088000,50.09708813476563,14.875,37.0625,26.899999618530273
1740578236560338000,50.193337890625,15.137499809265137,34.42499923706055,28.36250114440918
1740578236656588000,50.28958813476562,15.512499809265137,32.13750076293945,29.725000381469727
1740578236752838000,50.385837890625,14.21250057220459,30.399999618530273,30.412500381469727
1740578236849088000,50.482087890625,9.824999809265137,29.625,30.125
1740578236945337900,50.578337890625,4.962500095367432,29.375,29.6875
1740578237041588000,50.674587890625,0.23749999701976776,29.48750114440918,29.162500381469727
1740578237137838000,50.770838134765626,-3.637500047683716,29.212499618530273,28.8125
1740578237234088000,50.867087890625,-7.287499904632568,28.73750114440918,28.3125
1740578237330338000,50.96333813476563,-10.574999809265137,27.287500381469727,28.125
1740578237426588000,51.059587890625,-13.9375,24.67500114440918,28.162500381469727
1740578237522838000,51.155838134765624,-17.762500762939453,21.325000762939453,27.274999618530273
1740578237619088000,51.252087890625,-20.887500762939453,18.024999618530273,26.450000762939453
1740578237715338000,51.348337890625,-23.875,15.58750057220459,25.575000762939453
1740578237811588000,51.444588134765624,-26.6875,14.21250057220459,24.337499618530273
1740578237907838000,51.540837890625,-29.524999618530273,13.262499809265137,23
1740578238004088000,51.63708813476563,-31.662500381469727,12.425000190734863,22.262500762939453
1740578238100338000,51.733337890625,-33.98749923706055,10.850000381469727,20.9375
1740578238196588000,51.82958813476562,-36.212501525878906,8.137499809265137,17.475000381469727
1740578238292838000,51.925837890625,-36.42499923706055,4.950000286102295,13.237500190734863
1740578238485337900,52.118337890625,-34.462501525878906,-3.700000047683716,4.1875
1740578238581588000,52.214587890625,-33.38750076293945,-9.300000190734863,-0.3499999940395355
1740578238677838000,52.310838134765625,-32.32500076293945,-14.850000381469727,-5.1875
1740578238774088000,52.407087890625,-31.575000762939453,-20.037500381469727,-10.387499809265137
1740578238870338000,52.50333813476563,-30.225000381469727,-23.662500381469727,-15.02500057220459
1740578238966588000,52.599587890625,-28.537500381469727,-25.512500762939453,-17.05000114440918
1740578239062838000,52.69583813476562,-27.600000381469727,-26.450000762939453,-16.625
1740578239159087900,52.792087890625,-27.575000762939453,-26.8125,-15.100000381469727
1740578239255338000,52.888337890625,-27.8125,-26.6875,-13.850000381469727
1740578239351588000,52.98458813476562,-28.375,-25.92500114440918,-13
1740578239544088000,53.177088134765626,-29.262500762939453,-24.25,-11.925000190734863
1740578239640338000,53.273337890625,-29.712499618530273,-23.125,-11.887499809265137
1740578239736588000,53.36958813476563,-30,-21.98750114440918,-12.300000190734863
1740578239832838000,53.465837890625,-30.17500114440918,-20.912500381469727,-12.737500190734863
1740578239929088000,53.562087890625,-30.30000114440918,-20.075000762939453,-13.1875
1740578240025337900,53.658337890625,-30.48750114440918,-19.387500762939453,-13.449999809265137
1740578240121588000,53.754587890625,-30.587499618530273,-19.075000762939453,-13.425000190734863
1740578240217838000,53.850838134765624,-30.762500762939453,-18.73750114440918,-13.387499809265137
1740578240314088000,53.947087890625,-30.962499618530273,-18.55000114440918,-13.350000381469727
1740578240410338000,54.04333813476563,-31.30000114440918,-18.337499618530273,-13.137499809265137
1740578240506588000,54.139587890625,-31.662500381469727,-18.200000762939453,-12.787500381469727
1740578240602838000,54.23583813476562,-31.875,-18.1875,-12.699999809265137
1740578240699088000,54.332087890625,-32.04999923706055,-18.149999618530273,-12.862500190734863
1740578240795338000,54.428337890625,-32.04999923706055,-18.262500762939453,-13.125
1740578240891588000,54.52458813476562,-32.07500076293945,-18.387500762939453,-13.362500190734863
1740578240987838000,54.620837890625,-32.11249923706055,-18.5625,-13.5
1740578241084088000,54.717088134765625,-32.17499923706055,-18.762500762939453,-13.512499809265137
1740578241180338000,54.813337890625,-32.16250228881836,-19.149999618530273,-13.4375
1740578241276588000,54.90958813476563,-32.25,-19.375,-13.324999809265137
1740578241372838000,55.005837890625,-32.42499923706055,-19.537500381469727,-13.112500190734863
1740578241469088000,55.102087890625,-32.70000076293945,-19.48750114440918,-12.787500381469727
1740578241565337900,55.198337890625,-33.11249923706055,-19.1875,-12.46250057220459
1740578241661588000,55.294587890625,-33.41250228881836,-18.850000381469727,-12.33750057220459
1740578241757838000,55.39083813476562,-33.6875,-18.5625,-12.4375
1740578241854088000,55.487087890625,-33.91250228881836,-18.274999618530273,-12.71250057220459
1740578241950338000,55.583338134765626,-33.91250228881836,-18.1875,-13.074999809265137
1740578242046588000,55.679587890625,-33.95000076293945,-18.075000762939453,-13.425000190734863
1740578242142838000,55.77583813476563,-34,-17.975000381469727,-13.71250057220459
1740578242239087900,55.872087890625,-33.98749923706055,-18.037500381469727,-13.96250057220459
1740578242335338000,55.968337890625,-33.95000076293945,-18.1875,-14.125
1740578242431588000,56.06458813476563,-34.01250076293945,-18.17500114440918,-14.27500057220459
1740578242527838000,56.160837890625,-34.07500076293945,-18.125,-14.262499809265137
1740578242624088000,56.257088134765624,-34.25,-17.887500762939453,-14.15000057220459
1740578242720338000,56.353337890625,-34.48749923706055,-17.5,-14.074999809265137
1740578242816588000,56.44958813476563,-34.61249923706055,-17.262500762939453,-14.100000381469727
1740578242912838000,56.545837890625,-34.8125,-17.05000114440918,-14.175000190734863
1740578243009088000,56.642087890625,-34.95000076293945,-16.86250114440918,-14.27500057220459
1740578243105337900,56.738337890625,-35.0625,-16.725000381469727,-14.387499809265137
1740578243201588000,56.834587890625,-35.23749923706055,-16.712499618530273,-14.33750057220459
1740578243297838000,56.93083813476562,-35.375,-16.787500381469727,-14.237500190734863
1740578243394088000,57.027087890625,-35.38750076293945,-17.075000762939453,-14.137499809265137
1740578243490338000,57.123338134765625,-35.36249923706055,-17.4375,-14
1740578243586588000,57.219587890625,-35.275001525878906,-18.05000114440918,-13.637499809265137
1740578243682838000,57.31583813476563,-35.20000076293945,-18.5625,-13.21250057220459
1740578243779088000,57.412087890625,-35.22500228881836,-18.86250114440918,-12.83750057220459
1740578243875338000,57.508337890625,-35.28750228881836,-19.012500762939453,-12.625
1740578243971588000,57.60458813476563,-35.23749923706055,-19.149999618530273,-12.65000057220459
1740578244067838000,57.700837890625,-35.23749923706055,-19.23750114440918,-12.699999809265137
1740578244164088000,57.79708813476562,-35.25,-19.450000762939453,-12.65000057220459
1740578244260338000,57.893337890625,-35.57500076293945,-19.36250114440918,-12.33750057220459
1740578244356588000,57.989588134765626,-35.962501525878906,-19.037500381469727,-12.112500190734863
1740578244452838000,58.085837890625,-36.26250076293945,-18.837499618530273,-11.975000381469727
1740578244549088000,58.182087890625,-36.47500228881836,-18.725000381469727,-11.875
1740578244645337900,58.278337890625,-36.6875,-18.48750114440918,-11.875
1740578244741588000,58.374587890625,-36.85000228881836,-18.387500762939453,-11.824999809265137
1740578244837838000,58.47083813476563,-37.07500076293945,-18.212499618530273,-11.787500381469727
1740578244934088000,58.567087890625,-37.22500228881836,-18.0625,-11.83750057220459
1740578245030338000,58.663338134765624,-37.04999923706055,-18.30000114440918,-12.1875
1740578245126588000,58.759587890625,-36.875,-18.462499618530273,-12.662500381469727
1740578245222838000,58.85583813476563,-36.60000228881836,-18.6875,-13.225000381469727
1740578245319087900,58.952087890625,-36.337501525878906,-18.950000762939453,-13.737500190734863
1740578245415338000,59.048337890625,-35.97500228881836,-19.575000762939453,-13.949999809265137
1740578245511588000,59.14458813476563,-35.67499923706055,-20.200000762939453,-14.02500057220459
1740578245607838000,59.240837890625,-35.29999923706055,-20.887500762939453,-14.08750057220459
1740578245704088000,59.33708813476562,-35.01250076293945,-21.287500381469727,-14.262499809265137
1740578245800338000,59.433337890625,-34.900001525878906,-21.3125,-14.475000381469727
1740578245896588000,59.529588134765625,-34.79999923706055,-21.200000762939453,-14.75
1740578245992838000,59.625837890625,-34.70000076293945,-21,-14.987500190734863
1740578246089088000,59.722087890625,-34.587501525878906,-20.712499618530273,-15.362500190734863
1740578246185337900,59.818337890625,-34.53750228881836,-20.25,-15.850000381469727
1740578246281588000,59.914587890625,-34.4375,-19.86250114440918,-16.3125
1740578246377838000,60.01083813476563,-34.47500228881836,-19.450000762939453,-16.587499618530273
1740578246474088000,60.107087890625,-34.5625,-19.11250114440918,-16.700000762939453
1740578246570338000,60.20333813476562,-34.587501525878906,-19.075000762939453,-16.537500381469727
1740578246762838000,60.395838134765626,-34.712501525878906,-19.212499618530273,-15.96250057220459
1740578246859088000,60.492087890625,-34.875,-19.162500381469727,-15.574999809265137
1740578246955338000,60.588337890625,-35.01250076293945,-19.212499618530273,-15.225000381469727
1740578247051588000,60.684588134765626,-35.10000228881836,-19.137500762939453,-15.112500190734863
1740578247147838000,60.780837890625,-34.98749923706055,-19.137500762939453,-15.237500190734863
1740578247244088000,60.87708813476563,-34.82500076293945,-19.225000381469727,-15.237500190734863
1740578247340338000,60.973337890625,-34.63750076293945,-19.25,-15.350000381469727
1740578247436588000,61.069588134765624,-34.51250076293945,-19.1875,-15.375
1740578247532838000,61.165837890625,-34.36249923706055,-19.30000114440918,-15.27500057220459
1740578247629088000,61.262087890625,-34.125,-19.67500114440918,-15.100000381469727
1740578247725337900,61.358337890625,-33.8125,-20.0625,-14.925000190734863
1740578247821588000,61.454587890625,-33.5625,-20.387500762939453,-14.637499809265137
1740578247917838000,61.55083813476563,-33.35000228881836,-20.662500381469727,-14.33750057220459
1740578248014088000,61.647087890625,-33.26250076293945,-20.774999618530273,-14.1875
1740578248110338000,61.74333813476562,-33.13750076293945,-20.912500381469727,-14.137499809265137
1740578248206588000,61.839587890625,-32.775001525878906,-21.337499618530273,-14.15000057220459
1740578248302838000,61.935838134765625,-32.36249923706055,-21.825000762939453,-14.162500381469727
1740578248399087900,62.032087890625,-32,-22.337499618530273,-13.912500381469727
1740578248495338000,62.128337890625,-31.762500762939453,-22.837499618530273,-13.324999809265137
1740578248591588000,62.224588134765625,-31.537500381469727,-23.4375,-12.40000057220459
1740578248784088000,62.41708813476563,-31.05000114440918,-24.825000762939453,-9.162500381469727
1740578248880338000,62.513337890625,-30.700000762939453,-25.524999618530273,-6.787499904632568
1740578248976588000,62.60958813476562,-30.48750114440918,-26.012500762939453,-3.875
1740578249072838000,62.705837890625,-30.30000114440918,-26.274999618530273,-0.4375
1740578249169088000,62.802087890625,-30.100000381469727,-26.1875,2.987499952316284
1740578249265337900,62.898337890625,-30.087499618530273,-25.712499618530273,6.300000190734863
1740578249361588000,62.994587890625,-30.337499618530273,-24.475000381469727,9.662500381469727
1740578249457838000,63.090838134765626,-30.575000762939453,-22.762500762939453,12.987500190734863
1740578249554088000,63.187087890625,-30.837499618530273,-20.67500114440918,15.987500190734863
1740578249650338000,63.28333813476563,-31.462499618530273,-17.850000381469727,18.399999618530273
1740578249842838000,63.475838134765624,-33.5625,-10.77500057220459,20.637500762939453
1740578249939088000,63.572087890625,-34.85000228881836,-6.912499904632568,20.75
1740578250035338000,63.668337890625,-35.9375,-3.2125000953674316,20.762500762939453
1740578250131588000,63.764588134765624,-36.54999923706055,-0.07500000298023224,20.649999618530273
1740578250227838000,63.860837890625,-37.150001525878906,2.6625001430511475,20.225000381469727
1740578250324088000,63.95708813476563,-37.73749923706055,4.912499904632568,19.600000381469727
1740578250420338000,64.053337890625,-38.04999923706055,6.0625,19.25
1740578250516588000,64.14958813476562,-38.07500076293945,6.612500190734863,19.23750114440918
1740578250612838000,64.245837890625,-37.8125,6.200000286102295,19.712499618530273
1740578250709088000,64.342087890625,-37.17499923706055,4.962500095367432,20.774999618530273
1740578250805337900,64.438337890625,-36.54999923706055,3.487499952316284,21.725000381469727
1740578250901588000,64.534587890625,-36.212501525878906,2.25,22.462499618530273
1740578250997838000,64.63083813476563,-35.97500228881836,1.412500023841858,23.137500762939453
1740578251094088000,64.727087890625,-35.9375,0.8125,23.48750114440918
1740578251190338000,64.82333813476562,-35.95000076293945,0.4375,23.512500762939453
1740578251286588000,64.919587890625,-36,-0.32500001788139343,23.48750114440918
1740578251382838000,65.01583813476563,-36.16250228881836,-0.7250000238418579,23.225000381469727
1740578251479087900,65.112087890625,-36.53750228881836,-0.550000011920929,22.762500762939453
1740578251575338000,65.208337890625,-36.92499923706055,-0.30000001192092896,22.262500762939453
1740578251671588000,65.30458813476562,-37.25,-0.550000011920929,21.649999618530273
1740578251767838000,65.400837890625,-37.57500076293945,-1.3625000715255737,20.912500381469727
1740578251864088000,65.49708813476562,-37.70000076293945,-2.262500047683716,20.575000762939453
1740578251960338000,65.593337890625,-37.78750228881836,-2.7875001430511475,20.462499618530273
1740578252056588000,65.68958813476563,-37.79999923706055,-2.762500047683716,20.48750114440918
1740578252152838000,65.785837890625,-37.625,-2.5625,20.75
1740578252249088000,65.882087890625,-37.47500228881836,-2.450000047683716,20.950000762939453
1740578252345337900,65.978337890625,-37.25,-2.2750000953674316,21.1875
1740578252441588000,66.074587890625,-37.01250076293945,-2.0375001430511475,21.537500381469727
1740578252537838000,66.17083813476563,-36.78750228881836,-1.537500023841858,21.9375
1740578252634088000,66.267087890625,-36.48749923706055,-1.274999976158142,22.350000381469727
1740578252730338000,66.36333813476563,-36.26250076293945,-1.2625000476837158,22.5
1740578252922838000,66.55583813476562,-36.17499923706055,-1.212499976158142,22.212499618530273
1740578253019088000,66.652087890625,-36.150001525878906,-1.225000023841858,22.037500381469727
1740578253115338000,66.748337890625,-36.11249923706055,-1.412500023841858,21.912500381469727
1740578253211588000,66.84458813476563,-35.92499923706055,-1.625,21.887500762939453
1740578253307838000,66.940837890625,-35.650001525878906,-2.049999952316284,21.899999618530273
1740578253404088000,67.03708813476563,-35.42499923706055,-2.3500001430511475,21.837499618530273
1740578253500338000,67.133337890625,-35.17499923706055,-2.637500047683716,21.837499618530273
1740578253596588000,67.22958813476562,-34.900001525878906,-3.1875,21.762500762939453
1740578253692838000,67.325837890625,-34.79999923706055,-4.037499904632568,21.412500381469727
1740578253789088000,67.422087890625,-34.82500076293945,-4.849999904632568,20.787500381469727
1740578253885337900,67.518337890625,-34.875,-5.487500190734863,20.225000381469727
1740578253981588000,67.614587890625,-35.07500076293945,-6.0625,19.637500762939453
1740578254077838000,67.71083813476562,-35.36249923706055,-6.599999904632568,18.9375
1740578254174088000,67.807087890625,-35.60000228881836,-7.3125,18.262500762939453
1740578254270338000,67.90333813476562,-35.86249923706055,-8.012499809265137,17.512500762939453
1740578254366588000,67.999587890625,-36.0625,-8.762499809265137,16.8125
1740578254462838000,68.09583813476563,-36.0625,-9.5625,16.412500381469727
1740578254559087900,68.192087890625,-35.92499923706055,-10.5625,16.11250114440918
1740578254655338000,68.288337890625,-35.67499923706055,-11.912500381469727,15.65000057220459
1740578254751588000,68.38458813476562,-35.375,-13.3125,15.125
1740578254847838000,68.480837890625,-34.962501525878906,-14.800000190734863,14.699999809265137
1740578254944088000,68.57708813476563,-34.61249923706055,-16.149999618530273,14.1875
1740578255040338000,68.673337890625,-34.150001525878906,-17.475000381469727,13.65000057220459
1740578255136588000,68.76958813476563,-33.72500228881836,-18.625,13.050000190734863
1740578255232838000,68.865837890625,-33.337501525878906,-19.625,12.375
1740578255329088000,68.962087890625,-32.97500228881836,-20.5,11.65000057220459
1740578255425337900,69.058337890625,-32.67499923706055,-21.23750114440918,10.9375
1740578255521588000,69.154587890625,-32.3125,-21.975000381469727,10.199999809265137
1740578255617838000,69.25083813476563,-32.03750228881836,-22.575000762939453,9.375
1740578255714088000,69.347087890625,-31.75,-23.162500381469727,8.612500190734863
1740578255810338000,69.44333813476563,-31.524999618530273,-23.725000381469727,7.887500286102295
1740578255906588000,69.539587890625,-31.337499618530273,-24.225000381469727,7.200000286102295
1740578256002838000,69.63583813476562,-31.162500381469727,-24.6875,6.575000286102295
1740578256099088000,69.732087890625,-31.024999618530273,-25.0625,5.950000286102295
1740578256195338000,69.828337890625,-30.92500114440918,-25.399999618530273,5.1875
1740578256291588000,69.92458813476563,-30.975000381469727,-25.462499618530273,4.175000190734863
1740578256387838000,70.020837890625,-31.0625,-25.412500381469727,2.950000047683716
1740578256484088000,70.11708813476562,-31.23750114440918,-25.137500762939453,1.4375
1740578256580338000,70.213337890625,-31.475000381469727,-24.712499618530273,-0.11250000447034836
1740578256676588000,70.30958813476562,-31.662500381469727,-24.3125,-1.7375000715255737
1740578256772838000,70.405837890625,-31.787500381469727,-23.899999618530273,-3.424999952316284
1740578256869088000,70.502087890625,-31.962499618530273,-23.412500381469727,-5.012500286102295
1740578256965337900,70.598337890625,-32.20000076293945,-22.875,-6.474999904632568
1740578257061588000,70.694587890625,-32.275001525878906,-22.4375,-7.849999904632568
1740578257157838000,70.79083813476562,-32.275001525878906,-22,-9.1875
1740578257254088000,70.887087890625,-32.17499923706055,-21.575000762939453,-10.425000190734863
1740578257350338000,70.98333813476563,-32.04999923706055,-21.125,-11.550000190734863
1740578257446588000,71.079587890625,-32.0625,-20.412500381469727,-12.574999809265137
1740578257542838000,71.17583813476563,-32.22500228881836,-19.512500762939453,-13.487500190734863
1740578257639087900,71.272087890625,-32.45000076293945,-18.55000114440918,-14.3125
1740578257735338000,71.368337890625,-32.73749923706055,-17.575000762939453,-15
1740578257831588000,71.46458813476562,-33.17499923706055,-16.649999618530273,-15.287500381469727
1740578257927838000,71.560837890625,-33.79999923706055,-15.83750057220459,-15.02500057220459
1740578258024088000,71.65708813476563,-34.60000228881836,-14.987500190734863,-14.33750057220459
1740578258120338000,71.753337890625,-35.4375,-14.112500190734863,-13.512499809265137
1740578258216588000,71.84958813476563,-36.1875,-13.387499809265137,-12.612500190734863
1740578258312838000,71.945837890625,-36.900001525878906,-12.612500190734863,-11.6875
1740578258409088000,72.042087890625,-37.587501525878906,-11.975000381469727,-10.800000190734863
1740578258505337900,72.138337890625,-38.16250228881836,-11.625,-9.912500381469727
1740578258601588000,72.234587890625,-38.5625,-11.550000190734863,-9.050000190734863
1740578258697838000,72.33083813476563,-38.900001525878906,-11.262499809265137,-8.449999809265137
1740578258794088000,72.427087890625,-39.03750228881836,-11.375,-8.0625
1740578258890338000,72.52333813476562,-39.03750228881836,-11.699999809265137,-7.612500190734863
1740578258986588000,72.619587890625,-39.10000228881836,-12.100000381469727,-7.262500286102295
1740578259082838000,72.71583813476562,-39.07500076293945,-12.637499809265137,-7.0625
1740578259179088000,72.812087890625,-39,-13.0625,-7.150000095367432
1740578259275338000,72.908337890625,-38.8125,-13.449999809265137,-7.450000286102295
1740578259371588000,73.00458813476563,-38.67499923706055,-13.600000381469727,-8.0625
1740578259467838000,73.100837890625,-38.51250076293945,-13.824999809265137,-8.787500381469727
1740578259564088000,73.19708813476562,-38.41250228881836,-13.949999809265137,-9.350000381469727
1740578259660338000,73.293337890625,-38.35000228881836,-13.9375,-9.975000381469727
1740578259756588000,73.38958813476563,-38.16250228881836,-14.074999809265137,-10.612500190734863
1740578259852838000,73.485837890625,-37.875,-14.475000381469727,-11.27500057220459
1740578259949088000,73.582087890625,-37.400001525878906,-15.0625,-11.987500190734863
1740578260045337900,73.678337890625,-36.962501525878906,-15.4375,-12.850000381469727
1740578260141588000,73.774587890625,-36.63750076293945,-15.662500381469727,-13.512499809265137
1740578260237838000,73.87083813476562,-36.23749923706055,-16.024999618530273,-14.08750057220459
1740578260334088000,73.967087890625,-35.712501525878906,-16.450000762939453,-14.875
1740578260430338000,74.06333813476563,-35.04999923706055,-17.0625,-15.850000381469727
1740578260526588000,74.159587890625,-34.4375,-17.67500114440918,-16.662500381469727
1740578260622838000,74.25583813476563,-33.9375,-18.212499618530273,-17.200000762939453
1740578260719087900,74.352087890625,-33.70000076293945,-18.625,-17.287500381469727
1740578260815338000,74.448337890625,-33.54999923706055,-19.137500762939453,-16.98750114440918
1740578260911588000,74.54458813476562,-33.3125,-19.875,-16.67500114440918
1740578261007838000,74.640837890625,-33.1875,-20.48750114440918,-16.25
1740578261104088000,74.73708813476563,-33.26250076293945,-20.8125,-15.737500190734863
1740578261200338000,74.833337890625,-33.525001525878906,-20.8125,-15.225000381469727
1740578261296588000,74.92958813476562,-33.73749923706055,-20.662500381469727,-14.975000381469727
1740578261392838000,75.025837890625,-33.91250228881836,-20.450000762939453,-15.012499809265137
1740578261489088000,75.122087890625,-33.92499923706055,-20.287500381469727,-15.287500381469727
1740578261585337900,75.218337890625,-34,-19.98750114440918,-15.574999809265137
1740578261681588000,75.314587890625,-34.087501525878906,-19.5625,-15.800000190734863
1740578261777838000,75.41083813476563,-34.17499923706055,-19.1875,-16.075000762939453
1740578261874088000,75.507087890625,-34.20000076293945,-18.98750114440918,-16.325000762939453
1740578261970338000,75.60333813476562,-34.11249923706055,-19.087499618530273,-16.350000381469727
1740578262066588000,75.699587890625,-34.07500076293945,-19.23750114440918,-16.212499618530273
1740578262162838000,75.79583813476563,-34,-19.387500762939453,-16
1740578262259088000,75.892087890625,-34.01250076293945,-19.450000762939453,-15.75
1740578262355338000,75.988337890625,-34.01250076293945,-19.475000381469727,-15.550000190734863
1740578262451588000,76.08458813476562,-33.98749923706055,-19.5,-15.600000381469727
1740578262547838000,76.180837890625,-33.775001525878906,-19.587499618530273,-15.824999809265137
1740578262644088000,76.27708813476562,-33.5625,-19.5625,-16.100000381469727
1740578262740338000,76.373337890625,-33.5625,-19.387500762939453,-16.325000762939453
1740578262836588000,76.46958813476563,-33.75,-19.087499618530273,-16.212499618530273
1740578262932838000,76.565837890625,-34.03750228881836,-18.875,-15.8125
1740578263029088000,76.662087890625,-34.400001525878906,-18.649999618530273,-15.25
1740578263125337900,76.758337890625,-34.85000228881836,-18.23750114440918,-14.600000381469727
1740578263221588000,76.854587890625,-35.23749923706055,-18.075000762939453,-13.737500190734863
1740578263317838000,76.95083813476562,-35.73749923706055,-17.9375,-12.787500381469727
1740578263414088000,77.047087890625,-36.11249923706055,-18.024999618530273,-11.90000057220459
1740578263510338000,77.14333813476563,-36.28750228881836,-18.200000762939453,-11.237500190734863
1740578263606588000,77.239587890625,-36.41250228881836,-18.1875,-10.96250057220459
1740578263702838000,77.33583813476562,-36.60000228881836,-18.012500762939453,-10.77500057220459
1740578263799087900,77.432087890625,-36.8125,-17.787500381469727,-10.612500190734863
1740578263895338000,77.528337890625,-36.72500228881836,-18.17500114440918,-10.52500057220459
1740578263991588000,77.62458813476563,-36.63750076293945,-18.575000762939453,-10.574999809265137
1740578264087838000,77.720837890625,-36.5625,-18.73750114440918,-10.737500190734863
1740578264184088000,77.81708813476563,-36.54999923706055,-18.86250114440918,-10.83750057220459
1740578264280338000,77.913337890625,-36.63750076293945,-18.975000381469727,-10.725000381469727
1740578264376588000,78.00958813476562,-36.57500076293945,-19.450000762939453,-10.600000381469727
1740578264472838000,78.105837890625,-36.29999923706055,-20.0625,-10.787500381469727
1740578264569088000,78.202087890625,-35.875,-20.8125,-11.262499809265137
1740578264665337900,78.298337890625,-35.650001525878906,-21.137500762939453,-11.699999809265137
1740578264761588000,78.394587890625,-35.76250076293945,-21.037500381469727,-11.6875
1740578264857838000,78.49083813476562,-35.92499923706055,-21.087499618530273,-11.074999809265137
1740578264954088000,78.587087890625,-36.275001525878906,-21.05000114440918,-10.012499809265137
1740578265146588000,78.779587890625,-37,-20.462499618530273,-8.037500381469727
1740578265242838000,78.87583813476563,-37.650001525878906,-19.825000762939453,-6.75
1740578265339088000,78.972087890625,-38.16250228881836,-19.600000381469727,-5.275000095367432
1740578265435338000,79.068337890625,-38.400001525878906,-19.787500381469727,-4.050000190734863
1740578265531588000,79.16458813476562,-38.42499923706055,-20.100000381469727,-3.5
1740578265627838000,79.260837890625,-38.45000076293945,-20.30000114440918,-3.237499952316284
1740578265724088000,79.35708813476562,-38.51250076293945,-20.262500762939453,-3.0625
1740578265820338000,79.453337890625,-38.41250228881836,-20.61250114440918,-2.674999952316284
1740578265916588000,79.54958813476563,-38.0625,-21.287500381469727,-2.200000047683716
1740578266012838000,79.645837890625,-37.61249923706055,-22.212499618530273,-1.9500000476837158
1740578266109088000,79.742087890625,-37.35000228881836,-22.700000762939453,-1.899999976158142
1740578266205337900,79.838337890625,-37.45000076293945,-22.587499618530273,-1.5125000476837158
1740578266301588000,79.934587890625,-37.53750228881836,-22.512500762939453,-0.8500000238418579
1740578266397838000,80.03083813476563,-37.47500228881836,-22.712499618530273,-0.699999988079071
1740578266494088000,80.127087890625,-37.36249923706055,-22.86250114440918,-1.0750000476837158
1740578266590338000,80.22333813476563,-37.275001525878906,-22.9375,-1.524999976158142
1740578266686588000,80.319587890625,-37.32500076293945,-22.8125,-1.6375000476837158
1740578266782838000,80.41583813476562,-37.04999923706055,-22.98750114440918,-1.350000023841858
1740578266879087900,80.512087890625,-36.42499923706055,-23.55000114440918,-0.8125
1740578266975338000,80.608337890625,-35.75,-24.262500762939453,-0.48750001192092896
1740578267071588000,80.70458813476563,-35.25,-24.725000381469727,-0.32500001788139343
1740578267167838000,80.800837890625,-34.962501525878906,-24.875,0.3375000059604645
1740578267264088000,80.89708813476562,-34.462501525878906,-25.337499618530273,1.3125
1740578267360338000,80.993337890625,-33.82500076293945,-25.887500762939453,1.8125
1740578267456588000,81.08958813476562,-33.35000228881836,-26.17500114440918,1.5750000476837158
1740578267552838000,81.185837890625,-33.375,-25.86250114440918,1.1875
1740578267649088000,81.282087890625,-33.78750228881836,-25.037500381469727,1.0500000715255737
1740578267745337900,81.378337890625,-33.97500228881836,-24.537500381469727,1.2375000715255737
1740578267841588000,81.474587890625,-33.72500228881836,-24.512500762939453,1.7375000715255737
1740578267937838000,81.57083813476562,-33.36249923706055,-24.6875,1.899999976158142
1740578268034088000,81.667087890625,-33.3125,-24.537500381469727,1.5625
1740578268130338000,81.76333813476562,-33.70000076293945,-23.875,1.5500000715255737
1740578268226588000,81.859587890625,-33.85000228881836,-23.5625,1.9250000715255737
1740578268322838000,81.95583813476563,-33.72500228881836,-23.700000762939453,1.9250000715255737
1740578268419088000,82.052087890625,-33.525001525878906,-23.92500114440918,1.3000000715255737
1740578268515338000,82.148337890625,-33.54999923706055,-23.837499618530273,0.45000001788139343
1740578268611588000,82.24458813476562,-33.70000076293945,-23.700000762939453,-0.22500000894069672
1740578268707838000,82.340837890625,-33.61249923706055,-23.80000114440918,-0.5625
1740578268804088000,82.43708813476563,-33.150001525878906,-24.36250114440918,-0.48750001192092896
1740578268900338000,82.533337890625,-32.525001525878906,-25.149999618530273,-0.42500001192092896
1740578268996588000,82.62958813476563,-32.28750228881836,-25.524999618530273,-0.48750001192092896
1740578269092838000,82.725837890625,-32.51250076293945,-25.25,-0.15000000596046448
1740578269189088000,82.822087890625,-32.712501525878906,-25.087499618530273,0.612500011920929
1740578269285337900,82.918337890625,-32.79999923706055,-25.087499618530273,1.1875
1740578269381588000,83.014587890625,-33.01250076293945,-24.9375,1.2000000476837158
1740578269477838000,83.11083813476563,-33.375,-24.6875,0.9625000357627869
1740578269574088000,83.207087890625,-33.91250228881836,-24.1875,0.9375
1740578269670338000,83.30333813476562,-34.20000076293945,-23.98750114440918,1.100000023841858
1740578269766588000,83.399587890625,-34,-24.274999618530273,1.537500023841858
1740578269862838000,83.49583813476562,-33.57500076293945,-24.887500762939453,1.9250000715255737
1740578269959087900,83.592087890625,-33.45000076293945,-25.200000762939453,2.0250000953674316
1740578270055338000,83.688337890625,-33.38750076293945,-25.36250114440918,2.375
1740578270151588000,83.78458813476563,-33.10000228881836,-25.75,2.987499952316284
1740578270247838000,83.880837890625,-32.67499923706055,-26.25,3.487499952316284
1740578270344088000,83.97708813476562,-32.375,-26.637500762939453,3.6000001430511475
1740578270440338000,84.073337890625,-32.4375,-26.600000381469727,3.549999952316284
1740578270536588000,84.16958813476562,-32.82500076293945,-26.212499618530273,3.4000000953674316
1740578270632838000,84.265837890625,-33.04999923706055,-25.962499618530273,3.3375000953674316
1740578270729088000,84.362087890625,-32.72500228881836,-26.274999618530273,3.375
1740578270825337900,84.458337890625,-32.41250228881836,-26.625,3.1625001430511475
1740578270921588000,84.554587890625,-32.45000076293945,-26.524999618530273,2.6625001430511475
1740578271017838000,84.65083813476562,-32.72500228881836,-26.149999618530273,2.3125
1740578271114088000,84.747087890625,-32.9375,-25.887500762939453,2.0250000953674316
1740578271210338000,84.84333813476563,-32.625,-26.137500762939453,1.5125000476837158
1740578271306588000,84.939587890625,-32.275001525878906,-26.462499618530273,0.5625
1740578271402838000,85.03583813476563,-32.11249923706055,-26.512500762939453,-0.7875000238418579
1740578271499088000,85.132087890625,-32.23749923706055,-26.225000381469727,-2.112499952316284
1740578271595338000,85.228337890625,-32.5,-25.762500762939453,-3.237499952316284
1740578271691588000,85.32458813476562,-32.462501525878906,-25.73750114440918,-3.987499952316284
1740578271787838000,85.420837890625,-32.25,-25.899999618530273,-4.737500190734863
1740578271884088000,85.51708813476563,-31.887500762939453,-26.137500762939453,-5.662499904632568
1740578271980338000,85.613337890625,-31.98750114440918,-25.92500114440918,-6.412499904632568
1740578272076588000,85.70958813476562,-32.32500076293945,-25.450000762939453,-6.662499904632568
1740578272269088000,85.902087890625,-32.6875,-25.05000114440918,-6.849999904632568
1740578272365337900,85.998337890625,-32.712501525878906,-24.975000381469727,-7.112500190734863
1740578272461588000,86.094587890625,-32.837501525878906,-24.80000114440918,-7.4375
1740578272557838000,86.19083813476563,-33.25,-24.337499618530273,-7.4375
1740578272654088000,86.287087890625,-33.72500228881836,-23.9375,-6.987500190734863
1740578272750338000,86.38333813476562,-33.9375,-23.837499618530273,-6.512500286102295
1740578272846588000,86.479587890625,-33.875,-24.024999618530273,-6.412499904632568
1740578272942838000,86.57583813476562,-33.82500076293945,-24.100000381469727,-6.425000190734863
1740578273039087900,86.672087890625,-34.125,-23.73750114440918,-6.474999904632568
1740578273135338000,86.768337890625,-34.20000076293945,-23.6875,-6.599999904632568
1740578273231588000,86.86458813476563,-34.11249923706055,-23.80000114440918,-6.950000286102295
1740578273327838000,86.960837890625,-33.775001525878906,-24.037500381469727,-7.675000190734863
1740578273424088000,87.05708813476562,-33.45000076293945,-24.1875,-8.637499809265137
1740578273520338000,87.153337890625,-33.41250228881836,-24.05000114440918,-9.46250057220459
1740578273616588000,87.24958813476563,-33.375,-24.012500762939453,-10.050000190734863
1740578273712838000,87.345837890625,-33.13750076293945,-24.274999618530273,-10.3125
1740578273809088000,87.442087890625,-32.63750076293945,-25.037500381469727,-10.125
1740578273905337900,87.538337890625,-32.400001525878906,-25.48750114440918,-9.787500381469727
1740578274001588000,87.634587890625,-32.587501525878906,-25.42500114440918,-9.300000190734863
1740578274097838000,87.73083813476562,-32.962501525878906,-25.162500381469727,-8.6875
1740578274194088000,87.827087890625,-33.22500228881836,-25.075000762939453,-8.137499809265137
1740578274290338000,87.92333813476563,-33.20000076293945,-25.225000381469727,-7.787499904632568
1740578274386588000,88.019587890625,-33.26250076293945,-25.212499618530273,-7.5
1740578274482838000,88.11583813476562,-33.462501525878906,-25,-7.325000286102295
1740578274579088000,88.212087890625,-33.88750076293945,-24.42500114440918,-7.362500190734863
1740578274675338000,88.308337890625,-34.13750076293945,-24.100000381469727,-7.287499904632568
1740578274771588000,88.40458813476563,-34.125,-24.0625,-7.112500190734863
1740578274867838000,88.500837890625,-34.17499923706055,-23.975000381469727,-7.087500095367432
1740578274964088000,88.59708813476563,-34.28750228881836,-23.825000762939453,-6.912499904632568
1740578275060338000,88.693337890625,-34.625,-23.387500762939453,-6.612500190734863
1740578275156588000,88.78958813476562,-34.837501525878906,-23.100000381469727,-6.412499904632568
1740578275252838000,88.885837890625,-34.9375,-22.912500381469727,-6.400000095367432
1740578275349088000,88.982087890625,-34.900001525878906,-22.9375,-6.525000095367432
1740578275445337900,89.078337890625,-34.92499923706055,-22.850000381469727,-6.612500190734863
1740578275541588000,89.174587890625,-35.13750076293945,-22.61250114440918,-6.724999904632568
1740578275637838000,89.27083813476563,-35.150001525878906,-22.662500381469727,-6.5625
1740578275734088000,89.367087890625,-35.11249923706055,-22.787500381469727,-6.25
1740578275830338000,89.46333813476562,-35.17499923706055,-22.86250114440918,-6.099999904632568
1740578275926588000,89.559587890625,-35.462501525878906,-22.512500762939453,-5.962500095367432
1740578276022838000,89.65583813476563,-36.087501525878906,-21.637500762939453,-5.775000095367432
1740578276119087900,89.752087890625,-36.51250076293945,-21.125,-5.325000286102295
1740578276215338000,89.848337890625,-36.6875,-21.024999618530273,-4.887500286102295
1740578276311588000,89.94458813476562,-36.875,-20.850000381469727,-4.724999904632568
1740578276407838000,90.040837890625,-37.01250076293945,-20.6875,-4.550000190734863
1740578276504088000,90.13708813476562,-37.35000228881836,-20.225000381469727,-4.474999904632568
1740578276600338000,90.233337890625,-37.45000076293945,-20.075000762939453,-3.7250001430511475
1740578276696588000,90.32958813476563,-37.28750228881836,-20.325000762939453,-2.3500001430511475
1740578276792838000,90.425837890625,-37.01250076293945,-20.8125,-1
1740578276889088000,90.522087890625,-37.03750228881836,-20.712499618530273,0
1740578276985337900,90.618337890625,-37.525001525878906,-19.837499618530273,0.4625000059604645
1740578277081588000,90.714587890625,-37.75,-19.512500762939453,1.212499976158142
1740578277177838000,90.81083813476563,-37.97500228881836,-19.200000762939453,1.962499976158142
1740578277370338000,91.00333813476563,-37.962501525878906,-19.462499618530273,2.487499952316284
1740578277466588000,91.099587890625,-38.087501525878906,-19.512500762939453,1.9875000715255737
1740578277562838000,91.19583813476562,-37.650001525878906,-20.30000114440918,1.962499976158142
1740578277659088000,91.292087890625,-36.20000076293945,-22.037500381469727,2.9125001430511475
1740578277755338000,91.388337890625,-34.525001525878906,-24.024999618530273,4.575000286102295
1740578277851588000,91.48458813476563,-33.42499923706055,-25.274999618530273,6.1875
1740578277947838000,91.580837890625,-32.47500228881836,-26.30000114440918,7.724999904632568
1740578278044088000,91.67708813476563,-31.36250114440918,-27.387500762939453,9.27500057220459
1740578278140338000,91.773337890625,-30.450000762939453,-28.387500762939453,10.412500381469727
1740578278236588000,91.86958813476562,-29.86250114440918,-29.212499618530273,11.112500190734863
1740578278332838000,91.965837890625,-29.625,-29.5625,11.58750057220459
1740578278429088000,92.062087890625,-30.25,-29.200000762939453,11.4375
1740578278525337900,92.158337890625,-30.450000762939453,-29.30000114440918,11.050000190734863
1740578278621588000,92.254587890625,-30.11250114440918,-29.850000381469727,10.65000057220459
1740578278717838000,92.35083813476562,-30.225000381469727,-30.200000762939453,10.050000190734863
1740578278814088000,92.447087890625,-30.975000381469727,-29.962499618530273,9.287500381469727
1740578278910338000,92.54333813476562,-31.875,-29.387500762939453,8.75
1740578279006588000,92.639587890625,-32.23749923706055,-29.30000114440918,8.487500190734863
1740578279102838000,92.73583813476563,-32.650001525878906,-29.1875,7.675000190734863
1740578279199087900,92.832087890625,-33.1875,-28.912500381469727,6.200000286102295
1740578279295338000,92.928337890625,-34.10000228881836,-28.212499618530273,4.349999904632568
1740578279391588000,93.02458813476562,-35.275001525878906,-27.162500381469727,2.1500000953674316
1740578279487838000,93.120837890625,-35.86249923706055,-26.5625,-0.05000000074505806
1740578279584088000,93.21708813476563,-35.91250228881836,-26.387500762939453,-2.012500047683716
1740578279680338000,93.313337890625,-35.60000228881836,-26.575000762939453,-3.862499952316284
1740578279776588000,93.40958813476563,-35.337501525878906,-26.55000114440918,-5.75
1740578279872838000,93.505837890625,-34.73749923706055,-26.86250114440918,-7.075000286102295
1740578279969088000,93.602087890625,-33.4375,-27.875,-7.912499904632568
1740578280065337900,93.698337890625,-31.42500114440918,-29.30000114440918,-8.824999809265137
1740578280161588000,93.794587890625,-28.8125,-31.087499618530273,-9.625
1740578280257838000,93.89083813476563,-26.1875,-32.8125,-10.21250057220459
1740578280354088000,93.987087890625,-23.899999618530273,-34.38750076293945,-10.27500057220459
1740578280450338000,94.08333813476563,-21.67500114440918,-35.95000076293945,-9.887499809265137
1740578280546588000,94.179587890625,-19.274999618530273,-37.60000228881836,-8.987500190734863
1740578280642838000,94.27583813476562,-17.012500762939453,-38.9375,-7.950000286102295
1740578280739088000,94.372087890625,-15.550000190734863,-39.712501525878906,-7.112500190734863
1740578280835338000,94.468337890625,-14.949999809265137,-40.07500076293945,-6.025000095367432
1740578280931588000,94.56458813476563,-15,-40.22500228881836,-5.037499904632568
1740578281027838000,94.660837890625,-15.237500190734863,-40.1875,-4.625
1740578281124088000,94.75708813476562,-15.037500381469727,-40.13750076293945,-4.862500190734863
1740578281220338000,94.853337890625,-14.537500381469727,-40.10000228881836,-5.724999904632568
1740578281316588000,94.94958813476562,-14.4375,-39.91250228881836,-6.849999904632568
1740578281412838000,95.045837890625,-15.125,-39.51250076293945,-8.012499809265137
1740578281605337900,95.238337890625,-16.287500381469727,-38.67499923706055,-9.887499809265137
1740578281701588000,95.334587890625,-16.200000762939453,-38.38750076293945,-11.112500190734863
1740578281797838000,95.43083813476562,-15.912500381469727,-38.23749923706055,-11.875
1740578281894088000,95.527087890625,-16.325000762939453,-37.900001525878906,-12.4375
1740578281990338000,95.62333813476563,-17.30000114440918,-37.275001525878906,-13.012499809265137
1740578282086588000,95.719587890625,-18.262500762939453,-36.70000076293945,-13.550000190734863
1740578282182838000,95.81583813476563,-18.4375,-36.32500076293945,-14.5
1740578282279087900,95.912087890625,-18.4375,-36.01250076293945,-15.58750057220459
1740578282375338000,96.008337890625,-19.024999618530273,-35.48749923706055,-16.23750114440918
1740578282471588000,96.10458813476562,-20.399999618530273,-34.67499923706055,-16.23750114440918
1740578282567838000,96.200837890625,-22.087499618530273,-33.625,-16.25
1740578282664088000,96.29708813476563,-23.5,-32.61249923706055,-16.3125
1740578282760338000,96.393337890625,-24.5625,-31.625,-16.55000114440918
1740578282856588000,96.48958813476563,-26.012500762939453,-30.200000762939453,-16.67500114440918
1740578282952838000,96.585837890625,-28.037500381469727,-28.212499618530273,-16.662500381469727
1740578283049088000,96.682087890625,-29.825000762939453,-26.412500381469727,-16.80000114440918
1740578283145337900,96.778337890625,-31.012500762939453,-24.80000114440918,-17.36250114440918
1740578283241588000,96.874587890625,-31.80000114440918,-23.5,-18.05000114440918
1740578283337838000,96.97083813476563,-32.29999923706055,-22.649999618530273,-18.524999618530273
1740578283434088000,97.067087890625,-32.5,-22.36250114440918,-18.55000114440918
1740578283530338000,97.16333813476562,-32.95000076293945,-22.375,-17.6875
1740578283626588000,97.259587890625,-33.04999923706055,-22.637500762939453,-16.98750114440918
1740578283722838000,97.35583813476562,-33.0625,-23.087499618530273,-16.30000114440918
1740578283819088000,97.452087890625,-33.125,-23.462499618530273,-15.487500190734863
1740578283915338000,97.548337890625,-33.4375,-23.637500762939453,-14.662500381469727
1740578284011588000,97.64458813476563,-33.85000228881836,-23.61250114440918,-13.96250057220459
1740578284107838000,97.740837890625,-34.22500228881836,-23.350000381469727,-13.58750057220459
1740578284204088000,97.83708813476562,-34.85000228881836,-22.36250114440918,-13.737500190734863
1740578284300338000,97.933337890625,-35.275001525878906,-21.36250114440918,-14.350000381469727
1740578284396588000,98.02958813476563,-35.66250228881836,-20.5,-14.850000381469727
1740578284492838000,98.125837890625,-35.85000228881836,-19.962499618530273,-15.225000381469727
1740578284589088000,98.222087890625,-36.087501525878906,-19.5,-15.33750057220459
1740578284685337900,98.318337890625,-36.20000076293945,-19.3125,-15.350000381469727
1740578284781588000,98.414587890625,-36.1875,-19.11250114440918,-15.46250057220459
1740578284877838000,98.51083813476562,-36.23749923706055,-18.912500381469727,-15.58750057220459
1740578284974088000,98.607087890625,-36.3125,-18.825000762939453,-15.600000381469727
1740578285070338000,98.70333813476563,-36.41250228881836,-18.700000762939453,-15.600000381469727
1740578285166588000,98.799587890625,-36.36249923706055,-18.5625,-15.949999809265137
1740578285262838000,98.89583813476563,-36.29999923706055,-18.350000381469727,-16.412500381469727
1740578285359087900,98.992087890625,-36.32500076293945,-18.125,-16.962499618530273
1740578285455338000,99.088337890625,-36.41250228881836,-17.9375,-17.375
1740578285551588000,99.18458813476562,-36.42499923706055,-18.125,-17.512500762939453
1740578285647838000,99.280837890625,-36.400001525878906,-18.48750114440918,-17.42500114440918
1740578285744088000,99.37708813476563,-36.35000228881836,-18.98750114440918,-17.30000114440918
1740578285840338000,99.473337890625,-36.275001525878906,-19.512500762939453,-17.200000762939453
1740578285936588000,99.56958813476562,-36.35000228881836,-19.912500381469727,-16.875
1740578286032838000,99.665837890625,-36.4375,-20.325000762939453,-16.512500762939453
1740578286129088000,99.762087890625,-36.41250228881836,-20.662500381469727,-16.337499618530273
1740578286225337900,99.858337890625,-36.17499923706055,-21.075000762939453,-16.475000381469727
1740578286321588000,99.954587890625,-36.03750228881836,-21.287500381469727,-16.625
1740578286417838000,100.05083813476563,-35.92499923706055,-21.450000762939453,-16.637500762939453
1740578286514088000,100.147087890625,-35.85000228881836,-21.73750114440918,-16.225000381469727
1740578286610338000,100.24333813476562,-35.95000076293945,-21.962499618530273,-15.487500190734863
1740578286706588000,100.339587890625,-36.10000228881836,-22.137500762939453,-14.537500381469727
1740578286802838000,100.43583813476563,-36.5,-21.774999618530273,-13.662500381469727
1740578286899088000,100.532087890625,-37.07500076293945,-21.11250114440918,-12.83750057220459
1740578286995338000,100.628337890625,-37.70000076293945,-20.512500762939453,-11.887499809265137
1740578287091588000,100.72458813476563,-38.26250076293945,-19.875,-11.225000381469727
1740578287187838000,100.820837890625,-38.5625,-19.67500114440918,-10.537500381469727
1740578287284088000,100.91708813476562,-38.48749923706055,-20,-8.875
1740578287380338000,101.013337890625,-37.70000076293945,-20.837499618530273,-6.387500286102295
1740578287476588000,101.10958813476563,-36.23749923706055,-21.950000762939453,-3.424999952316284
1740578287572838000,101.205837890625,-33.837501525878906,-23.825000762939453,0.25
1740578287669088000,101.302087890625,-30.950000762939453,-26.037500381469727,4.3125
1740578287765337900,101.398337890625,-27.962499618530273,-28.0625,8.5625
1740578287861588000,101.494587890625,-25.42500114440918,-29.92500114440918,13.050000190734863
1740578287957838000,101.59083813476562,-22.875,-31.375,17.287500381469727
1740578288054088000,101.687087890625,-20.17500114440918,-32.400001525878906,20.05000114440918
1740578288150338000,101.78333813476563,-17.662500381469727,-33.10000228881836,21.662500381469727
1740578288246588000,101.879587890625,-15.15000057220459,-33.70000076293945,22.649999618530273
1740578288342838000,101.97583813476562,-12.850000381469727,-33.98749923706055,23.337499618530273
1740578288439087900,102.072087890625,-10.612500190734863,-34.087501525878906,24.024999618530273
1740578288535338000,102.168337890625,-8.4375,-34.01250076293945,24.787500381469727
1740578288631588000,102.26458813476563,-5.862500190734863,-34.11249923706055,25.600000381469727
1740578288824088000,102.45708813476563,-1.412500023841858,-33.525001525878906,27.350000381469727
1740578288920338000,102.553337890625,0.21250000596046448,-32.85000228881836,28.36250114440918
1740578289016588000,102.64958813476562,1.5,-32.23749923706055,29.149999618530273
1740578289112838000,102.745837890625,2.262500047683716,-31.912500381469727,29.462499618530273
1740578289209088000,102.842087890625,2.7125000953674316,-31.837499618530273,29.36250114440918
1740578289305337900,102.938337890625,2.8375000953674316,-32.025001525878906,28.92500114440918
1740578289401588000,103.034587890625,2.7125000953674316,-32.26250076293945,28.462499618530273
1740578289497838000,103.13083813476563,2.737499952316284,-32.60000228881836,27.899999618530273
1740578289594088000,103.227087890625,2.3125,-33.16250228881836,27.162500381469727
1740578289690338000,103.32333813476562,2.1000001430511475,-33.775001525878906,26.375
1740578289786588000,103.419587890625,1.524999976158142,-34.22500228881836,25.787500381469727
1740578289882838000,103.51583813476563,0.26250001788139343,-34.41250228881836,25.350000381469727
1740578289979088000,103.612087890625,-1.4500000476837158,-34.45000076293945,25.024999618530273
1740578290075338000,103.708337890625,-2.9000000953674316,-34.41250228881836,24.774999618530273
1740578290171588000,103.80458813476562,-4,-34.48749923706055,24.387500762939453
1740578290267838000,103.900837890625,-5.675000190734863,-34.45000076293945,23.9375
1740578290364088000,103.99708813476562,-7.587500095367432,-34.22500228881836,23.399999618530273
1740578290460338000,104.093337890625,-9.21250057220459,-34.07500076293945,22.92500114440918
1740578290556588000,104.18958813476563,-10.762499809265137,-33.95000076293945,22.337499618530273
1740578290652838000,104.285837890625,-11.475000381469727,-34,21.625
1740578290749088000,104.382087890625,-11.425000190734863,-34.11249923706055,21.075000762939453
1740578290845337900,104.478337890625,-11.625,-34.01250076293945,20.712499618530273
1740578290941588000,104.574587890625,-12.412500381469727,-33.60000228881836,20.450000762939453
1740578291037838000,104.67083813476563,-12.449999809265137,-33.36249923706055,20.325000762939453
1740578291134088000,104.767087890625,-11.800000190734863,-33.45000076293945,20.11250114440918
1740578291230338000,104.86333813476563,-11.537500381469727,-33.54999923706055,19.700000762939453
1740578291326588000,104.959587890625,-11.637499809265137,-33.60000228881836,19.287500381469727
1740578291422838000,105.05583813476562,-11.612500190734863,-33.63750076293945,19.137500762939453
1740578291519087900,105.152087890625,-11.824999809265137,-33.6875,19.087499618530273
1740578291615338000,105.248337890625,-11.912500381469727,-33.900001525878906,19.087499618530273
1740578291711588000,105.34458813476563,-11.125,-34.462501525878906,19.225000381469727
1740578291807838000,105.440837890625,-10.787500381469727,-34.79999923706055,19.537500381469727
1740578291904088000,105.53708813476563,-11.08750057220459,-34.8125,20.17500114440918
1740578292000338000,105.633337890625,-11.112500190734863,-34.85000228881836,21.037500381469727
1740578292096588000,105.72958813476562,-10.4375,-35.03750228881836,21.950000762939453
1740578292192838000,105.825837890625,-9.675000190734863,-35.35000228881836,22.61250114440918
1740578292289088000,105.922087890625,-9.225000381469727,-35.587501525878906,23.075000762939453
1740578292385337900,106.018337890625,-9.162500381469727,-35.78750228881836,23.25
1740578292481588000,106.114587890625,-9.3125,-35.900001525878906,23.387500762939453
1740578292577838000,106.21083813476562,-9.77500057220459,-35.98749923706055,23.337499618530273
1740578292674088000,106.307087890625,-9.52500057220459,-36.35000228881836,23.162500381469727
1740578292770338000,106.40333813476562,-9.612500190734863,-36.4375,23.11250114440918
1740578292866588000,106.499587890625,-10.3125,-36.275001525878906,23.075000762939453
1740578292962838000,106.59583813476563,-11.537500381469727,-35.95000076293945,23.037500381469727
1740578293059088000,106.692087890625,-12.5,-35.61249923706055,23.087499618530273
1740578293155338000,106.788337890625,-12.6875,-35.525001525878906,23.11250114440918
1740578293251588000,106.88458813476562,-12.862500190734863,-35.48749923706055,23.087499618530273
1740578293347838000,106.980837890625,-12.9375,-35.38750076293945,23.05000114440918
1740578293444088000,107.07708813476563,-13.375,-35.16250228881836,23.05000114440918
1740578293540338000,107.173337890625,-13.612500190734863,-35.087501525878906,22.975000381469727
1740578293636588000,107.26958813476563,-13.100000381469727,-35.3125,22.825000762939453
1740578293732838000,107.365837890625,-12.262499809265137,-35.47500228881836,22.887500762939453
1740578293829088000,107.462087890625,-11.96250057220459,-35.45000076293945,23.012500762939453
1740578293925337900,107.558337890625,-12.15000057220459,-35.20000076293945,23.17500114440918
1740578294021588000,107.654587890625,-12.387499809265137,-34.9375,23.412500381469727
1740578294117838000,107.75083813476563,-12.25,-34.9375,23.575000762939453
1740578294214088000,107.847087890625,-13.27500057220459,-34.5625,23.274999618530273
1740578294310338000,107.94333813476563,-14.637499809265137,-34.125,22.662500381469727
1740578294406588000,108.039587890625,-16.23750114440918,-33.76250076293945,22.012500762939453
1740578294502838000,108.13583813476562,-17.962499618530273,-33.26250076293945,21.575000762939453
1740578294599087900,108.232087890625,-18.700000762939453,-33.26250076293945,21.137500762939453
1740578294695338000,108.328337890625,-18.899999618530273,-33.28750228881836,21.024999618530273
1740578294791588000,108.42458813476563,-19.75,-32.91250228881836,21.012500762939453
1740578294887838000,108.520837890625,-20.92500114440918,-32.400001525878906,21
1740578294984087800,108.617087890625,-20.774999618530273,-32.38750076293945,21.375
1740578295080337200,108.71333715820313,-19.950000762939453,-32.73749923706055,21.825000762939453
1740578295176587000,108.8095869140625,-19.075000762939453,-33.03750228881836,22.30000114440918
1740578295272837000,108.90583715820313,-18.524999618530273,-33.38750076293945,22.36250114440918
1740578295369087200,109.00208715820312,-18.23750114440918,-33.51250076293945,22.5
1740578295465337000,109.09833715820312,-18.274999618530273,-33.5,22.587499618530273
1740578295561587200,109.19458715820312,-17.137500762939453,-34,22.600000381469727
1740578295657837000,109.29083715820312,-15.699999809265137,-34.36249923706055,22.962499618530273
1740578295754087200,109.38708715820313,-15.037500381469727,-34.087501525878906,23.662500381469727
1740578295850337000,109.4833369140625,-14.5,-33.375,24.8125
1740578295946587100,109.57958715820313,-13.21250057220459,-32.337501525878906,26.5
1740578296042837000,109.6758369140625,-10.925000190734863,-30.950000762939453,28.73750114440918
1740578296139087000,109.77208715820312,-9.02500057220459,-28.725000381469727,31.212499618530273
1740578296235337200,109.86833715820312,-8.100000381469727,-25.087499618530273,33.8125
1740578296331587000,109.96458715820313,-7.974999904632568,-20.137500762939453,36.45000076293945
1740578296427837200,110.06083715820313,-8,-15.4375,38.85000228881836
1740578296524087000,110.15708715820313,-6.987500190734863,-12.262499809265137,40.91250228881836
1740578296620337200,110.25333715820312,-5.925000190734863,-9.824999809265137,42.61249923706055
1740578296716587000,110.3495869140625,-5.762500286102295,-6.950000286102295,43.95000076293945
1740578296812837000,110.44583715820312,-6.375,-3.4625000953674316,44.88750076293945
1740578296909087200,110.54208715820313,-7.012500286102295,-0.2750000059604645,45.400001525878906
1740578297005337000,110.63833715820313,-7.412499904632568,1.1750000715255737,45.462501525878906
1740578297101587200,110.73458715820313,-7.474999904632568,1.537500023841858,45.5
1740578297197837000,110.83083715820312,-7.1875,2.5375001430511475,45.51250076293945
1740578297294087200,110.92708715820312,-7.125,4.8125,45.525001525878906
1740578297390337000,111.0233369140625,-7.112500190734863,7.224999904632568,45.78750228881836
1740578297486587100,111.11958715820313,-7.087500095367432,7.537499904632568,45.962501525878906
1740578297582837000,111.2158369140625,-6.650000095367432,5.325000286102295,45.79999923706055
1740578297679087000,111.31208715820313,-6.050000190734863,2.5250000953674316,45.57500076293945
1740578297775337200,111.40833715820312,-4.900000095367432,0.800000011920929,45.75
1740578297871587000,111.50458715820312,-3.737499952316284,-0.4375,45.98749923706055
1740578297967837200,111.60083715820312,-3.049999952316284,-2.424999952316284,46.23749923706055
1740578298064087000,111.69708715820312,-2.125,-5.300000190734863,46.337501525878906
1740578298160337200,111.79333715820313,-1.3250000476837158,-7.462500095367432,46.36249923706055
1740578298256587000,111.8895869140625,-0.7125000357627869,-8.6875,46.150001525878906
1740578298352837000,111.98583715820313,-0.20000000298023224,-9.0625,45.98749923706055
1740578298449087200,112.08208715820312,0.4625000059604645,-9.475000381469727,45.8125
1740578298545337000,112.17833715820312,1.7375000715255737,-10.75,45.337501525878906
1740578298641587200,112.27458715820312,2.9750001430511475,-12.375,44.76250076293945
1740578298737837000,112.37083715820313,3.6875,-13.262499809265137,44.47500228881836
1740578298834087200,112.46708715820313,3.5375001430511475,-12.425000190734863,44.60000228881836
1740578298930337000,112.5633369140625,2.512500047683716,-11.199999809265137,44.61249923706055
1740578299026587100,112.65958715820312,1.3875000476837158,-9.199999809265137,44.72500228881836
1740578299122837000,112.7558369140625,0,-6.162499904632568,44.962501525878906
1740578299219087000,112.85208715820312,-1.8000000715255737,-2.512500047683716,45.13750076293945
1740578299315337200,112.94833715820313,-3.7875001430511475,1.0750000476837158,45.36249923706055
1740578299411587000,113.04458715820313,-5.775000095367432,3.6875,45.6875
1740578299507837200,113.14083715820313,-6.787499904632568,4.450000286102295,45.6875
1740578299604087000,113.23708715820312,-6.9375,3.3375000953674316,45.29999923706055
1740578299700337200,113.33333715820312,-6.487500190734863,2.0250000953674316,45.04999923706055
1740578299796587000,113.4295869140625,-6.012500286102295,1.6875,45.01250076293945
1740578299989087200,113.62208715820313,-6.512500286102295,1.5500000715255737,44.775001525878906
1740578300085337000,113.71833715820313,-6.825000286102295,1.725000023841858,44.57500076293945
1740578300181587200,113.81458715820312,-7.237500190734863,3.325000047683716,44.125
1740578300277837000,113.91083715820312,-7.650000095367432,6.112500190734863,43.79999923706055
1740578300374087200,114.00708715820312,-8.037500381469727,8.475000381469727,44
1740578300470337000,114.1033369140625,-8.1875,8.762499809265137,44.04999923706055
1740578300566587100,114.19958715820313,-7.75,6.550000190734863,43.66250228881836
1740578300662837000,114.2958369140625,-6.650000095367432,3.299999952316284,43.337501525878906
1740578300759087000,114.39208715820313,-5.400000095367432,0.625,43.51250076293945
1740578300855337200,114.48833715820312,-4.912499904632568,-1.3250000476837158,43.837501525878906
1740578300951587000,114.58458715820312,-4.875,-3.075000047683716,44.28750228881836
1740578301047837200,114.68083715820312,-5.112500190734863,-4.012500286102295,44.54999923706055
1740578301144087000,114.77708715820313,-5.637500286102295,-2.8500001430511475,44.20000076293945
1740578301240337200,114.87333715820313,-6.25,-0.10000000149011612,43.88750076293945
1740578301336587000,114.9695869140625,-6.925000190734863,2.7250001430511475,44.20000076293945
1740578301432837000,115.06583715820312,-7.137500286102295,3.9125001430511475,44.53750228881836
1740578301529087200,115.16208715820312,-6.800000190734863,2.575000047683716,43.92499923706055
1740578301625337000,115.25833715820312,-6.387500286102295,-0.26250001788139343,42.875
1740578301721587200,115.35458715820313,-5.987500190734863,-2.9375,42.29999923706055
1740578301817837000,115.45083715820313,-5.887500286102295,-4.9375,42.25
1740578301914087200,115.54708715820313,-5.862500190734863,-7.012500286102295,42.54999923706055
1740578302010337000,115.6433369140625,-6.0625,-8.27500057220459,42.78750228881836
1740578302106587100,115.73958715820312,-6.375,-7.25,42.51250076293945
1740578302202837000,115.8358369140625,-6.849999904632568,-3.8125,42.11249923706055
1740578302299087000,115.93208715820313,-7.375,0.612500011920929,42.625
1740578302395337200,116.02833715820313,-7.450000286102295,3.6625001430511475,43.61249923706055
1740578302491587000,116.12458715820313,-6.650000095367432,4.0625,43.82500076293945
1740578302587837200,116.22083715820312,-5.412499904632568,2.3125,43.28750228881836
1740578302684087000,116.31708715820312,-4.262500286102295,-0.11250000447034836,42.70000076293945
1740578302780337200,116.41333715820312,-3.5875000953674316,-2.5875000953674316,42.45000076293945
1740578302876587000,116.5095869140625,-3.387500047683716,-5.537499904632568,42.54999923706055
1740578302972837000,116.60583715820313,-3.1000001430511475,-8.800000190734863,42.9375
1740578303069087200,116.70208715820313,-3.0625,-11.175000190734863,43.025001525878906
1740578303165337000,116.79833715820313,-3.325000047683716,-11.324999809265137,42.95000076293945
1740578303261587200,116.89458715820312,-3.762500047683716,-9.350000381469727,43.3125
1740578303357837000,116.99083715820312,-4.400000095367432,-7.087500095367432,43.95000076293945
1740578303454087200,117.08708715820312,-4.724999904632568,-5.575000286102295,44.4375
1740578303550337000,117.1833369140625,-4.287499904632568,-4.550000190734863,44.70000076293945
1740578303646587100,117.27958715820313,-3.625,-2.862499952316284,44.88750076293945
1740578303742837000,117.3758369140625,-3.6625001430511475,-0.5,44.8125
1740578303839087000,117.47208715820312,-4.25,1.8625000715255737,44.61249923706055
1740578303935337200,117.56833715820312,-4.737500190734863,4.150000095367432,44.25
1740578304031587000,117.66458715820312,-5.612500190734863,6.099999904632568,43.712501525878906
1740578304127837200,117.76083715820313,-5.8125,8.362500190734863,43.45000076293945
1740578304224087000,117.85708715820313,-5.9375,10.33750057220459,43.51250076293945
1740578304320337200,117.95333715820313,-6.150000095367432,10.65000057220459,43.57500076293945
1740578304416587000,118.0495869140625,-5.737500190734863,8.412500381469727,43.28750228881836
1740578304512837000,118.14583715820312,-4.987500190734863,4.787499904632568,42.98749923706055
1740578304609087200,118.24208715820312,-3.875,2.125,43.22500228881836
1740578304705337000,118.33833715820313,-3.362499952316284,0.5625,43.70000076293945
1740578304801587200,118.43458715820313,-3.5,-0.11250000447034836,43.95000076293945
1740578304897837000,118.53083715820313,-4.325000286102295,0.1875,43.775001525878906
1740578304994087200,118.62708715820312,-5.212500095367432,2.1000001430511475,43.087501525878906
1740578305090337000,118.7233369140625,-5.512500286102295,5.075000286102295,42.712501525878906
1740578305186587100,118.81958715820312,-5.912499904632568,7.775000095367432,43.087501525878906
1740578305282837000,118.9158369140625,-5.775000095367432,8.6875,43.4375
1740578305379087000,119.01208715820313,-5.099999904632568,6.662499904632568,42.61249923706055
1740578305475337200,119.10833715820313,-4,2.887500047683716,41.48749923706055
1740578305571587000,119.20458715820313,-2.1875,-0.3499999940395355,41.51250076293945
1740578305667837200,119.30083715820312,-1.8625000715255737,-2.625,42
1740578305764087000,119.39708715820312,-2.487499952316284,-4.050000190734863,42.42499923706055
1740578305860337200,119.49333715820312,-3.4125001430511475,-3.7250001430511475,42.13750076293945
1740578305956587000,119.5895869140625,-4.837500095367432,-1.3250000476837158,41.150001525878906
1740578306149087200,119.78208715820313,-7.5,6.1875,41.85000228881836
1740578306245337000,119.87833715820312,-7.625,7.862500190734863,42.75
1740578306341587200,119.97458715820312,-7.287499904632568,5.925000190734863,41.4375
1740578306437837000,120.07083715820312,-5.175000190734863,2.075000047683716,39.775001525878906
1740578306534087200,120.16708715820313,-3.125,-1.6125000715255737,39.6875
1740578306630337000,120.2633369140625,-2.8500001430511475,-4.112500190734863,40.400001525878906
1740578306726587100,120.35958715820313,-2.7875001430511475,-5,40.837501525878906
1740578306822837000,120.4558369140625,-3,-3.6500000953674316,39.98749923706055
1740578306919087000,120.55208715820312,-3.450000047683716,-0.5375000238418579,38.78750228881836
1740578307015337200,120.64833715820312,-4.337500095367432,3.762500047683716,38.63750076293945
1740578307111587000,120.74458715820313,-5.650000095367432,8.262499809265137,40.26250076293945
1740578307207837200,120.84083715820313,-6.612500190734863,11.162500381469727,41.92499923706055
1740578307304087000,120.93708715820313,-6.637500286102295,11.600000381469727,42.13750076293945
1740578307400337200,121.03333715820312,-5.450000286102295,10.350000381469727,42.17499923706055
1740578307496587000,121.1295869140625,-4.849999904632568,8.4375,42.73749923706055
1740578307592837000,121.22583715820312,-5.625,5.849999904632568,43.650001525878906
1740578307689087200,121.32208715820312,-6.487500190734863,4.400000095367432,44.13750076293945
1740578307785337000,121.41833715820313,-7.5,4.737500190734863,43.72500228881836
1740578307881587200,121.51458715820313,-7.200000286102295,6.9375,43.23749923706055
1740578307977837000,121.61083715820313,-7.550000190734863,9.324999809265137,43.32500076293945
1740578308170337000,121.8033369140625,-6.525000095367432,9.02500057220459,42.97500228881836
1740578308266587100,121.89958715820312,-5.650000095367432,5.474999904632568,42.0625
1740578308362837000,121.9958369140625,-3.799999952316284,2.762500047683716,42.29999923706055
1740578308459087000,122.09208715820313,-2.487499952316284,0.9125000238418579,43.087501525878906
1740578308555337200,122.18833715820313,-1.662500023841858,-0.10000000149011612,43.76250076293945
1740578308651587000,122.28458715820312,-2.112499952316284,0.0625,43.63750076293945
1740578308747837200,122.38083715820312,-2.125,1.5500000715255737,43.1875
1740578308844087000,122.47708715820312,-4.200000286102295,3.612499952316284,42.51250076293945
1740578308940337200,122.57333715820313,-10.33750057220459,7.300000190734863,38.54999923706055
1740578309036587000,122.6695869140625,-15.637499809265137,9.787500381469727,32.41250228881836
1740578309132837000,122.76583715820313,-20.262500762939453,8.71250057220459,27.262500762939453
1740578309229087200,122.86208715820312,-22.649999618530273,4.75,25.625
1740578309325337000,122.95833715820312,-22.912500381469727,3.5,25.587499618530273
1740578309421587200,123.05458715820312,-24.387500762939453,3.325000047683716,25.024999618530273
1740578309517837000,123.15083715820313,-25.875,4.287499904632568,23.875
1740578309614087200,123.24708715820313,-25.037500381469727,6.462500095367432,23.200000762939453
1740578309710337000,123.3433369140625,-19.75,7.75,27.399999618530273
1740578309806587100,123.43958715820312,-13.875,8.537500381469727,34.42499923706055
1740578309902837000,123.5358369140625,-8.350000381469727,9.875,39.48749923706055
1740578309999087000,123.63208715820312,-5.300000190734863,9.5,40.150001525878906
1740578310095337200,123.72833715820312,-2.887500047683716,6.8125,39.73749923706055
1740578310191587000,123.82458715820313,-0.375,4.287499904632568,40.900001525878906
1740578310287837200,123.92083715820313,1.6125000715255737,2.262500047683716,41.962501525878906
1740578310384087000,124.01708715820313,2.9125001430511475,1.587499976158142,42.5625
1740578310480337200,124.11333715820312,4.300000190734863,1.75,42.3125
1740578310576587000,124.2095869140625,4.599999904632568,2.237499952316284,42.23749923706055
1740578310672837000,124.30583715820312,4.212500095367432,3.1625001430511475,42.400001525878906
1740578310769087200,124.40208715820313,3.4000000953674316,4.875,42.91250228881836
1740578310865337000,124.49833715820313,2.875,6.925000190734863,43.4375
1740578310961587200,124.59458715820313,3.0250000953674316,8.77500057220459,43.0625
1740578311057837000,124.69083715820312,3.0875000953674316,10,42.41250228881836
1740578311154087200,124.78708715820312,3.2250001430511475,10.5,42.07500076293945
1740578311250337000,124.8833369140625,3.4750001430511475,10.27500057220459,41.900001525878906
1740578311346587100,124.97958715820313,3.987499952316284,10.800000190734863,41.76250076293945
1740578311442837000,125.0758369140625,4.262500286102295,11.074999809265137,41.8125
1740578311539087000,125.17208715820313,5,11.58750057220459,41.91250228881836
1740578311635337200,125.26833715820312,5.762500286102295,12.75,41.8125
1740578311731587000,125.36458715820312,6.125,13.512499809265137,41.5625
1740578311827837200,125.46083715820312,6.400000095367432,13.875,41.32500076293945
1740578311924087000,125.55708715820313,7.3125,13.8125,41.28750228881836
1740578312020337200,125.65333715820313,8.46250057220459,12.9375,41.23749923706055
1740578312116587000,125.7495869140625,9.08750057220459,11.737500190734863,41.20000076293945
1740578312212837000,125.84583715820312,10.350000381469727,11.262499809265137,40.9375
1740578312309087200,125.94208715820312,11.612500190734863,10.362500190734863,40.525001525878906
1740578312405337000,126.03833715820312,12.537500381469727,8.862500190734863,40.25
1740578312501587200,126.13458715820312,13.725000381469727,8.125,40.275001525878906
1740578312597837000,126.23083715820313,14.75,7.900000095367432,40.29999923706055
1740578312694087200,126.32708715820313,14.887499809265137,8.012499809265137,40.20000076293945
1740578312790337000,126.4233369140625,14.08750057220459,9.4375,39.875
1740578312886587100,126.51958715820312,14.050000190734863,11.75,39.462501525878906
1740578312982837000,126.6158369140625,14.1875,12.949999809265137,39.36249923706055
1740578313079087000,126.71208715820312,14.625,12.512499809265137,38.97500228881836
1740578313175337200,126.80833715820313,14.600000381469727,9.925000190734863,37.8125
1740578313367837200,127.00083715820313,15.08750057220459,-0.550000011920929,37.29999923706055
1740578313464087000,127.09708715820312,15.08750057220459,-3.5375001430511475,38.275001525878906
1740578313560337200,127.19333715820312,14.699999809265137,-4.762500286102295,38.88750076293945
1740578313656587000,127.2895869140625,14.175000190734863,-4.400000095367432,38.775001525878906
1740578313752837000,127.38583715820313,13.550000190734863,-2.674999952316284,38.4375
1740578313849087200,127.48208715820313,12.675000190734863,0.012500000186264515,38.82500076293945
1740578313945337000,127.57833715820313,12.137499809265137,2.3500001430511475,39.9375
1740578314041587200,127.67458715820312,12.475000381469727,3,40.16250228881836
1740578314137837000,127.77083715820312,12.65000057220459,0.800000011920929,38.70000076293945
1740578314234087200,127.86708715820312,12.300000190734863,-2.987499952316284,37.525001525878906
1740578314330337000,127.9633369140625,11.21250057220459,-6.175000190734863,37.712501525878906
1740578314426587100,128.05958715820313,10.137499809265137,-8.387499809265137,38.4375
1740578314522837000,128.1558369140625,9.125,-9.199999809265137,38.9375
1740578314619087000,128.25208715820312,8.27500057220459,-8.02500057220459,38.875
1740578314715337200,128.34833715820312,7.512500286102295,-4.762500286102295,38.75
1740578314811587000,128.44458715820312,6.550000190734863,-0.6000000238418579,39.875
1740578314907837200,128.54083715820312,6.3125,2.6875,41.72500228881836
1740578315004087000,128.63708715820312,7.375,3.512500047683716,42.125
1740578315100337200,128.7333371582031,8.925000190734863,1.149999976158142,40.650001525878906
1740578315196587000,128.8295869140625,10.512499809265137,-2.487499952316284,39.35000228881836
1740578315292837000,128.92583715820314,12.02500057220459,-5.625,39.07500076293945
1740578315389087200,129.02208715820314,12.862500190734863,-7.450000286102295,39.48749923706055
1740578315485337000,129.11833715820313,13.225000381469727,-8.46250057220459,39.900001525878906
1740578315581587200,129.21458715820313,12.83750057220459,-8.012499809265137,39.98749923706055
1740578315677837000,129.31083715820313,12.3125,-5.575000286102295,40
1740578315774087200,129.40708715820313,12.012499809265137,-1.725000023841858,40.712501525878906
1740578315870337000,129.5033369140625,12.21250057220459,2.5375001430511475,42.212501525878906
1740578315966587100,129.59958715820312,12.33750057220459,4.875,43.25
1740578316062837000,129.6958369140625,12.550000190734863,4.050000190734863,42.85000228881836
1740578316159087000,129.79208715820312,12.77500057220459,0.800000011920929,42.04999923706055
1740578316255337200,129.88833715820311,12.862500190734863,-2.3125,41.92499923706055
1740578316351587000,129.9845871582031,12.949999809265137,-3.862499952316284,42.16250228881836
1740578316447837200,130.08083715820314,12.100000381469727,-4.412499904632568,42.375
1740578316544087000,130.17708715820314,10.65000057220459,-3.825000047683716,42.4375
1740578316640337200,130.27333715820313,9.362500190734863,-2.049999952316284,42.337501525878906
1740578316736587000,130.3695869140625,8.5,0.800000011920929,42.400001525878906
1740578316832837000,130.46583715820313,8.137499809265137,4.112500190734863,43.11249923706055
1740578316929087200,130.56208715820313,8.125,5.637500286102295,43.6875
1740578317025337000,130.65833715820312,8.425000190734863,4.012500286102295,42.76250076293945
1740578317121587200,130.75458715820312,8.8125,-0.2750000059604645,41.025001525878906
1740578317217837000,130.85083715820312,9.83750057220459,-4.587500095367432,40.125
1740578317314087200,130.94708715820312,10.800000190734863,-7.525000095367432,40.212501525878906
1740578317410337000,131.0433369140625,10.675000190734863,-9.612500190734863,40.67499923706055
1740578317506587100,131.1395871582031,9.90000057220459,-10.512499809265137,41
1740578317602837000,131.2358369140625,9.012499809265137,-9.350000381469727,40.9375
1740578317699087000,131.33208715820314,8.4375,-5.887500286102295,40.88750076293945
1740578317795337200,131.42833715820314,8.300000190734863,-1.4875000715255737,41.98749923706055
1740578317891587000,131.52458715820313,8.550000190734863,1.8625000715255737,43.54999923706055
1740578317987837200,131.62083715820313,9.21250057220459,2.4750001430511475,43.6875
1740578318084087000,131.71708715820313,10.137499809265137,0.25,42.41250228881836
1740578318180337200,131.81333715820313,11.300000190734863,-2.887500047683716,41.275001525878906
1740578318276587000,131.9095869140625,12.4375,-5.512500286102295,40.91250228881836
1740578318372837000,132.00583715820312,12.46250057220459,-7.912499904632568,41.20000076293945
1740578318469087200,132.10208715820312,11.71250057220459,-9.862500190734863,41.6875
1740578318565337000,132.19833715820312,10.725000381469727,-9.725000381469727,41.82500076293945
1740578318661587200,132.29458715820311,10.27500057220459,-6.612500190734863,41.5
1740578318757837000,132.3908371582031,9.3125,-2.424999952316284,42.0625
1740578318854087200,132.48708715820314,8.237500190734863,1.125,43.41250228881836
1740578318950337000,132.5833369140625,7.9375,2.7125000953674316,44.150001525878906
1740578319046587100,132.67958715820313,8.25,1.774999976158142,43.66250228881836
1740578319142837000,132.7758369140625,9.125,-0.26250001788139343,42.85000228881836
1740578319239087000,132.87208715820313,10.25,-2,42.41250228881836
1740578319431587000,133.06458715820312,9.100000381469727,-6.025000095367432,43.025001525878906
1740578319527837200,133.16083715820312,8.287500381469727,-6.775000095367432,43.22500228881836
1740578319624087000,133.25708715820312,8.012499809265137,-4.700000286102295,42.775001525878906
1740578319720337200,133.35333715820312,7.537499904632568,-0.9375,42.54999923706055
1740578319816587000,133.4495869140625,6.599999904632568,2.625,43.20000076293945
1740578319912837000,133.5458371582031,6.037499904632568,4.162499904632568,43.70000076293945
1740578320009087200,133.6420871582031,6.099999904632568,3.200000047683716,43.16250228881836
1740578320105337000,133.73833715820314,6.837500095367432,1.212499976158142,42.3125
1740578320201587200,133.83458715820314,8.425000190734863,-0.5875000357627869,41.72500228881836
1740578320297837000,133.93083715820313,8.9375,-1.850000023841858,41.625
1740578320394087200,134.02708715820313,8.52500057220459,-3.4125001430511475,41.91250228881836
1740578320490337000,134.1233369140625,8,-4.3125,42.087501525878906
1740578320586587100,134.21958715820313,8.1875,-3.075000047683716,41.54999923706055
1740578320682837000,134.3158369140625,8.25,-0.26250001788139343,41.1875
